success,trial_type,time_elapsed,internal_node_id,view_history,rt,pid,responses,correct,revealed_states,num_clicks_accrued,state_rewards,trial_id,block,trial_index,score,simulation_mode,rewards,path,actions,action_times,queries,displayed_time,trial_time,stimulus,button_pressed
True,fullscreen,2241.0,0.0-0.0,,,2610,,,,,,,,,,,,,,,,,,,
True,fullscreen,2817.0,0.0-0.0,,,2611,,,,,,,,,,,,,,,,,,,
True,fullscreen,2028.0,0.0-0.0,,,2521,,,,,,,,,,,,,,,,,,,
True,fullscreen,3149.0,0.0-0.0,,,2499,,,,,,,,,,,,,,,,,,,
True,fullscreen,3623.0,0.0-0.0,,,2411,,,,,,,,,,,,,,,,,,,
True,fullscreen,3217.0,0.0-0.0,,,2710,,,,,,,,,,,,,,,,,,,
True,fullscreen,2671.0,0.0-0.0,,,2711,,,,,,,,,,,,,,,,,,,
True,fullscreen,23747.0,0.0-0.0,,,2612,,,,,,,,,,,,,,,,,,,
True,fullscreen,3253.0,0.0-0.0,,,2613,,,,,,,,,,,,,,,,,,,
True,fullscreen,7000.0,0.0-0.0,,,2585,,,,,,,,,,,,,,,,,,,
True,fullscreen,1932897.0,0.0-4.0,,,2585,,,,,,,,,,,,,,,,,,,
True,fullscreen,3359.0,0.0-0.0,,,2412,,,,,,,,,,,,,,,,,,,
True,fullscreen,7179.0,0.0-0.0,,,2375,,,,,,,,,,,,,,,,,,,
True,fullscreen,3183.0,0.0-0.0,,,2614,,,,,,,,,,,,,,,,,,,
True,fullscreen,2774.0,0.0-0.0,,,199,,,,,,,,,,,,,,,,,,,
True,fullscreen,6835.0,0.0-0.0,,,2599,,,,,,,,,,,,,,,,,,,
True,fullscreen,3407.0,0.0-0.0,,,2808,,,,,,,,,,,,,,,,,,,
True,fullscreen,5015.0,0.0-0.0,,,2809,,,,,,,,,,,,,,,,,,,
True,fullscreen,5136.0,0.0-0.0,,,2810,,,,,,,,,,,,,,,,,,,
True,fullscreen,2968726.0,0.0-4.0,,,2810,,,,,,,,,,,,,,,,,,,
True,fullscreen,5837.0,0.0-0.0,,,2429,,,,,,,,,,,,,,,,,,,
True,fullscreen,3436.0,0.0-0.0,,,2376,,,,,,,,,,,,,,,,,,,
True,fullscreen,6883.0,0.0-0.0,,,2746,,,,,,,,,,,,,,,,,,,
True,fullscreen,13411.0,0.0-0.0,,,2747,,,,,,,,,,,,,,,,,,,
True,fullscreen,1080483.0,0.0-4.0,,,2747,,,,,,,,,,,,,,,,,,,
True,fullscreen,3317.0,0.0-0.0,,,2603,,,,,,,,,,,,,,,,,,,
True,fullscreen,6165.0,0.0-0.0,,,2482,,,,,,,,,,,,,,,,,,,
True,fullscreen,2314543.0,0.0-4.0,,,2482,,,,,,,,,,,,,,,,,,,
True,fullscreen,4317.0,0.0-0.0,,,2446,,,,,,,,,,,,,,,,,,,
True,fullscreen,8369.0,0.0-0.0,,,2811,,,,,,,,,,,,,,,,,,,
True,fullscreen,2298.0,0.0-0.0,,,2700,,,,,,,,,,,,,,,,,,,
True,fullscreen,2843.0,0.0-0.0,,,2701,,,,,,,,,,,,,,,,,,,
True,fullscreen,4745.0,0.0-0.0,,,2689,,,,,,,,,,,,,,,,,,,
True,fullscreen,4213.0,0.0-0.0,,,2522,,,,,,,,,,,,,,,,,,,
True,fullscreen,2185533.0,0.0-4.0,,,2522,,,,,,,,,,,,,,,,,,,
True,fullscreen,4464.0,0.0-0.0,,,2523,,,,,,,,,,,,,,,,,,,
True,fullscreen,3500.0,0.0-0.0,,,2513,,,,,,,,,,,,,,,,,,,
True,fullscreen,4482.0,0.0-0.0,,,2430,,,,,,,,,,,,,,,,,,,
True,fullscreen,2042616.0,0.0-0.0,,,2409,,,,,,,,,,,,,,,,,,,
True,fullscreen,3867.0,0.0-0.0,,,2419,,,,,,,,,,,,,,,,,,,
True,fullscreen,5367.0,0.0-0.0,,,2359,,,,,,,,,,,,,,,,,,,
True,fullscreen,10761.0,0.0-0.0,,,2748,,,,,,,,,,,,,,,,,,,
True,fullscreen,5383.0,0.0-0.0,,,2804,,,,,,,,,,,,,,,,,,,
True,fullscreen,6414.0,0.0-0.0,,,2615,,,,,,,,,,,,,,,,,,,
True,fullscreen,2413.0,0.0-0.0,,,2749,,,,,,,,,,,,,,,,,,,
True,fullscreen,3120.0,0.0-0.0,,,2524,,,,,,,,,,,,,,,,,,,
True,fullscreen,3188.0,0.0-0.0,,,2508,,,,,,,,,,,,,,,,,,,
True,fullscreen,10399.0,0.0-0.0,,,2750,,,,,,,,,,,,,,,,,,,
True,fullscreen,4548.0,0.0-0.0,,,2525,,,,,,,,,,,,,,,,,,,
True,fullscreen,2811.0,0.0-0.0,,,2526,,,,,,,,,,,,,,,,,,,
True,fullscreen,29940.0,0.0-0.0,,,2493,,,,,,,,,,,,,,,,,,,
True,fullscreen,7591.0,0.0-0.0,,,2410,,,,,,,,,,,,,,,,,,,
True,fullscreen,1180473.0,0.0-4.0,,,2410,,,,,,,,,,,,,,,,,,,
True,fullscreen,10335.0,0.0-0.0,,,2751,,,,,,,,,,,,,,,,,,,
True,fullscreen,6887.0,0.0-0.0,,,2616,,,,,,,,,,,,,,,,,,,
True,fullscreen,6650.0,0.0-0.0,,,2617,,,,,,,,,,,,,,,,,,,
True,fullscreen,3306.0,0.0-0.0,,,2618,,,,,,,,,,,,,,,,,,,
True,fullscreen,4153.0,0.0-0.0,,,2527,,,,,,,,,,,,,,,,,,,
True,fullscreen,3087.0,0.0-0.0,,,2462,,,,,,,,,,,,,,,,,,,
True,fullscreen,6453.0,0.0-0.0,,,2377,,,,,,,,,,,,,,,,,,,
True,fullscreen,6736.0,0.0-0.0,,,2712,,,,,,,,,,,,,,,,,,,
True,fullscreen,3708.0,0.0-0.0,,,2702,,,,,,,,,,,,,,,,,,,
True,fullscreen,3537.0,0.0-0.0,,,2619,,,,,,,,,,,,,,,,,,,
True,fullscreen,10569.0,0.0-0.0,,,976,,,,,,,,,,,,,,,,,,,
True,fullscreen,5590.0,0.0-0.0,,,2752,,,,,,,,,,,,,,,,,,,
True,fullscreen,4683.0,0.0-0.0,,,2703,,,,,,,,,,,,,,,,,,,
True,fullscreen,6984.0,0.0-0.0,,,2690,,,,,,,,,,,,,,,,,,,
True,fullscreen,2554.0,0.0-0.0,,,2528,,,,,,,,,,,,,,,,,,,
True,fullscreen,3006.0,0.0-0.0,,,2500,,,,,,,,,,,,,,,,,,,
True,fullscreen,2851.0,0.0-0.0,,,860,,,,,,,,,,,,,,,,,,,
True,fullscreen,2955.0,0.0-0.0,,,2713,,,,,,,,,,,,,,,,,,,
True,fullscreen,2449.0,0.0-0.0,,,2714,,,,,,,,,,,,,,,,,,,
True,fullscreen,3958.0,0.0-0.0,,,2620,,,,,,,,,,,,,,,,,,,
True,fullscreen,11895.0,0.0-0.0,,,2600,,,,,,,,,,,,,,,,,,,
True,fullscreen,7660.0,0.0-0.0,,,847,,,,,,,,,,,,,,,,,,,
True,fullscreen,5970.0,0.0-0.0,,,2451,,,,,,,,,,,,,,,,,,,
True,fullscreen,1179269.0,0.0-4.0,,,2451,,,,,,,,,,,,,,,,,,,
True,fullscreen,10522.0,0.0-0.0,,,2421,,,,,,,,,,,,,,,,,,,
True,fullscreen,36736.0,0.0-0.0,,,2401,,,,,,,,,,,,,,,,,,,
True,fullscreen,4177.0,0.0-0.0,,,2812,,,,,,,,,,,,,,,,,,,
True,fullscreen,11433.0,0.0-0.0,,,2813,,,,,,,,,,,,,,,,,,,
True,fullscreen,8065.0,0.0-0.0,,,2753,,,,,,,,,,,,,,,,,,,
True,fullscreen,6062.0,0.0-0.0,,,2715,,,,,,,,,,,,,,,,,,,
True,fullscreen,4759.0,0.0-0.0,,,2704,,,,,,,,,,,,,,,,,,,
True,fullscreen,2715.0,0.0-0.0,,,2529,,,,,,,,,,,,,,,,,,,
True,fullscreen,276144.0,0.0-0.0,,,2814,,,,,,,,,,,,,,,,,,,
True,fullscreen,5310.0,0.0-0.0,,,2815,,,,,,,,,,,,,,,,,,,
True,fullscreen,11729.0,0.0-0.0,,,2621,,,,,,,,,,,,,,,,,,,
True,fullscreen,63953.0,0.0-0.0,,,2530,,,,,,,,,,,,,,,,,,,
True,fullscreen,2589.0,0.0-0.0,,,2531,,,,,,,,,,,,,,,,,,,
True,fullscreen,4875.0,0.0-0.0,,,2532,,,,,,,,,,,,,,,,,,,
True,fullscreen,2867.0,0.0-0.0,,,2501,,,,,,,,,,,,,,,,,,,
True,fullscreen,9810.0,0.0-0.0,,,2496,,,,,,,,,,,,,,,,,,,
True,fullscreen,3708.0,0.0-0.0,,,2444,,,,,,,,,,,,,,,,,,,
True,fullscreen,5454.0,0.0-0.0,,,2378,,,,,,,,,,,,,,,,,,,
True,fullscreen,3227.0,0.0-0.0,,,2754,,,,,,,,,,,,,,,,,,,
True,fullscreen,9541.0,0.0-0.0,,,2622,,,,,,,,,,,,,,,,,,,
True,fullscreen,2396.0,0.0-0.0,,,2458,,,,,,,,,,,,,,,,,,,
True,fullscreen,6726.0,0.0-0.0,,,2379,,,,,,,,,,,,,,,,,,,
True,fullscreen,4948.0,0.0-0.0,,,2533,,,,,,,,,,,,,,,,,,,
True,fullscreen,5725.0,0.0-0.0,,,2534,,,,,,,,,,,,,,,,,,,
True,fullscreen,9070.0,0.0-0.0,,,2479,,,,,,,,,,,,,,,,,,,
True,fullscreen,4789.0,0.0-0.0,,,2413,,,,,,,,,,,,,,,,,,,
True,fullscreen,4921.0,0.0-0.0,,,2623,,,,,,,,,,,,,,,,,,,
True,fullscreen,6413.0,0.0-0.0,,,2535,,,,,,,,,,,,,,,,,,,
True,fullscreen,12996.0,0.0-0.0,,,2403,,,,,,,,,,,,,,,,,,,
True,fullscreen,3245.0,0.0-0.0,,,2380,,,,,,,,,,,,,,,,,,,
True,fullscreen,3800.0,0.0-0.0,,,187,,,,,,,,,,,,,,,,,,,
True,fullscreen,2742.0,0.0-0.0,,,2381,,,,,,,,,,,,,,,,,,,
True,fullscreen,4549.0,0.0-0.0,,,2382,,,,,,,,,,,,,,,,,,,
True,fullscreen,2484.0,0.0-0.0,,,2536,,,,,,,,,,,,,,,,,,,
True,fullscreen,5739.0,0.0-0.0,,,2502,,,,,,,,,,,,,,,,,,,
True,fullscreen,8185.0,0.0-0.0,,,2624,,,,,,,,,,,,,,,,,,,
True,fullscreen,4255.0,0.0-0.0,,,2414,,,,,,,,,,,,,,,,,,,
True,fullscreen,6013.0,0.0-0.0,,,2383,,,,,,,,,,,,,,,,,,,
True,fullscreen,2481.0,0.0-0.0,,,2625,,,,,,,,,,,,,,,,,,,
True,fullscreen,3708.0,0.0-0.0,,,2626,,,,,,,,,,,,,,,,,,,
True,fullscreen,4515.0,0.0-0.0,,,2816,,,,,,,,,,,,,,,,,,,
True,fullscreen,2412506.0,0.0-4.0,,,2816,,,,,,,,,,,,,,,,,,,
True,fullscreen,6351.0,0.0-0.0,,,2755,,,,,,,,,,,,,,,,,,,
True,fullscreen,1251092.0,0.0-4.0,,,2755,,,,,,,,,,,,,,,,,,,
True,fullscreen,8467.0,0.0-0.0,,,2716,,,,,,,,,,,,,,,,,,,
True,fullscreen,1315725.0,0.0-4.0,,,2716,,,,,,,,,,,,,,,,,,,
True,fullscreen,4030.0,0.0-0.0,,,2717,,,,,,,,,,,,,,,,,,,
True,fullscreen,943080.0,0.0-4.0,,,2717,,,,,,,,,,,,,,,,,,,
True,fullscreen,5063.0,0.0-0.0,,,2627,,,,,,,,,,,,,,,,,,,
True,fullscreen,1972481.0,0.0-4.0,,,2627,,,,,,,,,,,,,,,,,,,
True,fullscreen,7159.0,0.0-0.0,,,2628,,,,,,,,,,,,,,,,,,,
True,fullscreen,1451848.0,0.0-4.0,,,2628,,,,,,,,,,,,,,,,,,,
True,fullscreen,12281.0,0.0-0.0,,,2629,,,,,,,,,,,,,,,,,,,
True,fullscreen,1249867.0,0.0-4.0,,,2629,,,,,,,,,,,,,,,,,,,
True,fullscreen,2834.0,0.0-0.0,,,2601,,,,,,,,,,,,,,,,,,,
True,fullscreen,1422563.0,0.0-4.0,,,2601,,,,,,,,,,,,,,,,,,,
True,fullscreen,5764.0,0.0-0.0,,,2537,,,,,,,,,,,,,,,,,,,
True,fullscreen,1046490.0,0.0-4.0,,,2537,,,,,,,,,,,,,,,,,,,
True,fullscreen,4400.0,0.0-0.0,,,2538,,,,,,,,,,,,,,,,,,,
True,fullscreen,1524078.0,0.0-4.0,,,2538,,,,,,,,,,,,,,,,,,,
True,fullscreen,7500.0,0.0-0.0,,,2505,,,,,,,,,,,,,,,,,,,
True,fullscreen,1429623.0,0.0-4.0,,,2505,,,,,,,,,,,,,,,,,,,
True,fullscreen,8447.0,0.0-0.0,,,2422,,,,,,,,,,,,,,,,,,,
True,fullscreen,1404180.0,0.0-4.0,,,2422,,,,,,,,,,,,,,,,,,,
True,fullscreen,5859.0,0.0-0.0,,,2415,,,,,,,,,,,,,,,,,,,
True,fullscreen,1073736.0,0.0-4.0,,,2415,,,,,,,,,,,,,,,,,,,
True,fullscreen,5336.0,0.0-0.0,,,2394,,,,,,,,,,,,,,,,,,,
True,fullscreen,1108375.0,0.0-4.0,,,2394,,,,,,,,,,,,,,,,,,,
True,fullscreen,8177.0,0.0-0.0,,,2756,,,,,,,,,,,,,,,,,,,
True,fullscreen,1984135.0,0.0-4.0,,,2756,,,,,,,,,,,,,,,,,,,
True,fullscreen,4129.0,0.0-0.0,,,2757,,,,,,,,,,,,,,,,,,,
True,fullscreen,900932.0,0.0-4.0,,,2757,,,,,,,,,,,,,,,,,,,
True,fullscreen,5395.0,0.0-0.0,,,2758,,,,,,,,,,,,,,,,,,,
True,fullscreen,1335287.0,0.0-4.0,,,2758,,,,,,,,,,,,,,,,,,,
True,fullscreen,3047.0,0.0-0.0,,,2759,,,,,,,,,,,,,,,,,,,
True,fullscreen,1842564.0,0.0-4.0,,,2759,,,,,,,,,,,,,,,,,,,
True,fullscreen,42715.0,0.0-0.0,,,2630,,,,,,,,,,,,,,,,,,,
True,fullscreen,4075946.0,0.0-4.0,,,2630,,,,,,,,,,,,,,,,,,,
True,fullscreen,3345.0,0.0-0.0,,,2631,,,,,,,,,,,,,,,,,,,
True,fullscreen,1704672.0,0.0-4.0,,,2631,,,,,,,,,,,,,,,,,,,
True,fullscreen,6991.0,0.0-0.0,,,2597,,,,,,,,,,,,,,,,,,,
True,fullscreen,1649097.0,0.0-4.0,,,2597,,,,,,,,,,,,,,,,,,,
True,fullscreen,2654.0,0.0-0.0,,,2584,,,,,,,,,,,,,,,,,,,
True,fullscreen,2048419.0,0.0-4.0,,,2584,,,,,,,,,,,,,,,,,,,
True,fullscreen,5393.0,0.0-0.0,,,2514,,,,,,,,,,,,,,,,,,,
True,fullscreen,1650699.0,0.0-4.0,,,2514,,,,,,,,,,,,,,,,,,,
True,fullscreen,4685.0,0.0-0.0,,,2511,,,,,,,,,,,,,,,,,,,
True,fullscreen,1107524.0,0.0-4.0,,,2511,,,,,,,,,,,,,,,,,,,
True,fullscreen,5458.0,0.0-0.0,,,2506,,,,,,,,,,,,,,,,,,,
True,fullscreen,3500782.0,0.0-4.0,,,2506,,,,,,,,,,,,,,,,,,,
True,fullscreen,2346.0,0.0-0.0,,,2467,,,,,,,,,,,,,,,,,,,
True,fullscreen,1095135.0,0.0-4.0,,,2467,,,,,,,,,,,,,,,,,,,
True,fullscreen,6338.0,0.0-0.0,,,1038,,,,,,,,,,,,,,,,,,,
True,fullscreen,2709416.0,0.0-4.0,,,1038,,,,,,,,,,,,,,,,,,,
True,fullscreen,4575.0,0.0-0.0,,,2395,,,,,,,,,,,,,,,,,,,
True,fullscreen,4272580.0,0.0-4.0,,,2395,,,,,,,,,,,,,,,,,,,
True,fullscreen,7241.0,0.0-0.0,,,2817,,,,,,,,,,,,,,,,,,,
True,fullscreen,1419086.0,0.0-4.0,,,2817,,,,,,,,,,,,,,,,,,,
True,fullscreen,10507.0,0.0-0.0,,,2760,,,,,,,,,,,,,,,,,,,
True,fullscreen,1497710.0,0.0-4.0,,,2760,,,,,,,,,,,,,,,,,,,
True,fullscreen,7496.0,0.0-0.0,,,244,,,,,,,,,,,,,,,,,,,
True,fullscreen,1632412.0,0.0-4.0,,,244,,,,,,,,,,,,,,,,,,,
True,fullscreen,6196.0,0.0-0.0,,,2718,,,,,,,,,,,,,,,,,,,
True,fullscreen,1064521.0,0.0-4.0,,,2718,,,,,,,,,,,,,,,,,,,
True,fullscreen,3640.0,0.0-0.0,,,2632,,,,,,,,,,,,,,,,,,,
True,fullscreen,916934.0,0.0-4.0,,,2632,,,,,,,,,,,,,,,,,,,
True,fullscreen,4334.0,0.0-0.0,,,2633,,,,,,,,,,,,,,,,,,,
True,fullscreen,1904739.0,0.0-4.0,,,2633,,,,,,,,,,,,,,,,,,,
True,fullscreen,4491.0,0.0-0.0,,,2634,,,,,,,,,,,,,,,,,,,
True,fullscreen,3080393.0,0.0-4.0,,,2634,,,,,,,,,,,,,,,,,,,
True,fullscreen,4778.0,0.0-0.0,,,2539,,,,,,,,,,,,,,,,,,,
True,fullscreen,1144069.0,0.0-4.0,,,2539,,,,,,,,,,,,,,,,,,,
True,fullscreen,14254.0,0.0-0.0,,,2540,,,,,,,,,,,,,,,,,,,
True,fullscreen,1240431.0,0.0-4.0,,,2540,,,,,,,,,,,,,,,,,,,
True,fullscreen,2573.0,0.0-0.0,,,2515,,,,,,,,,,,,,,,,,,,
True,fullscreen,1444478.0,0.0-4.0,,,2515,,,,,,,,,,,,,,,,,,,
True,fullscreen,7091.0,0.0-0.0,,,2503,,,,,,,,,,,,,,,,,,,
True,fullscreen,1048464.0,0.0-4.0,,,2503,,,,,,,,,,,,,,,,,,,
True,fullscreen,6844.0,0.0-0.0,,,2468,,,,,,,,,,,,,,,,,,,
True,fullscreen,1432324.0,0.0-4.0,,,2468,,,,,,,,,,,,,,,,,,,
True,fullscreen,4376.0,0.0-0.0,,,2396,,,,,,,,,,,,,,,,,,,
True,fullscreen,1431058.0,0.0-4.0,,,2396,,,,,,,,,,,,,,,,,,,
True,fullscreen,4404.0,0.0-0.0,,,1715,,,,,,,,,,,,,,,,,,,
True,fullscreen,1070797.0,0.0-4.0,,,1715,,,,,,,,,,,,,,,,,,,
True,fullscreen,6096.0,0.0-0.0,,,2818,,,,,,,,,,,,,,,,,,,
True,fullscreen,1333976.0,0.0-4.0,,,2818,,,,,,,,,,,,,,,,,,,
True,fullscreen,4095.0,0.0-0.0,,,2761,,,,,,,,,,,,,,,,,,,
True,fullscreen,2085255.0,0.0-4.0,,,2761,,,,,,,,,,,,,,,,,,,
True,fullscreen,2994.0,0.0-0.0,,,2762,,,,,,,,,,,,,,,,,,,
True,fullscreen,864940.0,0.0-4.0,,,2762,,,,,,,,,,,,,,,,,,,
True,fullscreen,3583.0,0.0-0.0,,,2719,,,,,,,,,,,,,,,,,,,
True,fullscreen,1686804.0,0.0-4.0,,,2719,,,,,,,,,,,,,,,,,,,
True,fullscreen,4117.0,0.0-0.0,,,2635,,,,,,,,,,,,,,,,,,,
True,fullscreen,1338404.0,0.0-4.0,,,2635,,,,,,,,,,,,,,,,,,,
True,fullscreen,3798.0,0.0-0.0,,,2636,,,,,,,,,,,,,,,,,,,
True,fullscreen,984425.0,0.0-4.0,,,2636,,,,,,,,,,,,,,,,,,,
True,fullscreen,11437.0,0.0-0.0,,,2637,,,,,,,,,,,,,,,,,,,
True,fullscreen,2331399.0,0.0-4.0,,,2637,,,,,,,,,,,,,,,,,,,
True,fullscreen,3674.0,0.0-0.0,,,2586,,,,,,,,,,,,,,,,,,,
True,fullscreen,1330319.0,0.0-4.0,,,2586,,,,,,,,,,,,,,,,,,,
True,fullscreen,2476.0,0.0-0.0,,,2541,,,,,,,,,,,,,,,,,,,
True,fullscreen,1387935.0,0.0-4.0,,,2541,,,,,,,,,,,,,,,,,,,
True,fullscreen,3230.0,0.0-0.0,,,2507,,,,,,,,,,,,,,,,,,,
True,fullscreen,1490084.0,0.0-4.0,,,2507,,,,,,,,,,,,,,,,,,,
True,fullscreen,34216.0,0.0-0.0,,,2490,,,,,,,,,,,,,,,,,,,
True,fullscreen,2999165.0,0.0-4.0,,,2490,,,,,,,,,,,,,,,,,,,
True,fullscreen,10926.0,0.0-0.0,,,2466,,,,,,,,,,,,,,,,,,,
True,fullscreen,809786.0,0.0-4.0,,,2466,,,,,,,,,,,,,,,,,,,
True,fullscreen,3436.0,0.0-0.0,,,2397,,,,,,,,,,,,,,,,,,,
True,fullscreen,1803052.0,0.0-4.0,,,2397,,,,,,,,,,,,,,,,,,,
True,fullscreen,45077.0,0.0-0.0,,,2384,,,,,,,,,,,,,,,,,,,
True,fullscreen,1979694.0,0.0-4.0,,,2384,,,,,,,,,,,,,,,,,,,
True,fullscreen,4821.0,0.0-0.0,,,2763,,,,,,,,,,,,,,,,,,,
True,fullscreen,3363645.0,0.0-4.0,,,2763,,,,,,,,,,,,,,,,,,,
True,fullscreen,24709.0,0.0-0.0,,,2764,,,,,,,,,,,,,,,,,,,
True,fullscreen,2047053.0,0.0-4.0,,,2764,,,,,,,,,,,,,,,,,,,
True,fullscreen,4517.0,0.0-0.0,,,2720,,,,,,,,,,,,,,,,,,,
True,fullscreen,1182038.0,0.0-4.0,,,2720,,,,,,,,,,,,,,,,,,,
True,fullscreen,5448.0,0.0-0.0,,,2638,,,,,,,,,,,,,,,,,,,
True,fullscreen,3193500.0,0.0-4.0,,,2638,,,,,,,,,,,,,,,,,,,
True,fullscreen,3292.0,0.0-0.0,,,2639,,,,,,,,,,,,,,,,,,,
True,fullscreen,1736510.0,0.0-4.0,,,2639,,,,,,,,,,,,,,,,,,,
True,fullscreen,7412.0,0.0-0.0,,,2640,,,,,,,,,,,,,,,,,,,
True,fullscreen,335666.0,0.0-4.0,,,2640,,,,,,,,,,,,,,,,,,,
True,fullscreen,9774.0,0.0-0.0,,,2542,,,,,,,,,,,,,,,,,,,
True,fullscreen,2289516.0,0.0-4.0,,,2542,,,,,,,,,,,,,,,,,,,
True,fullscreen,3235.0,0.0-0.0,,,2543,,,,,,,,,,,,,,,,,,,
True,fullscreen,2347767.0,0.0-4.0,,,2543,,,,,,,,,,,,,,,,,,,
True,fullscreen,20356.0,0.0-0.0,,,2491,,,,,,,,,,,,,,,,,,,
True,fullscreen,2433495.0,0.0-4.0,,,2491,,,,,,,,,,,,,,,,,,,
True,fullscreen,3466.0,0.0-0.0,,,2480,,,,,,,,,,,,,,,,,,,
True,fullscreen,1808156.0,0.0-4.0,,,2480,,,,,,,,,,,,,,,,,,,
True,fullscreen,5973.0,0.0-0.0,,,2469,,,,,,,,,,,,,,,,,,,
True,fullscreen,2876183.0,0.0-4.0,,,2469,,,,,,,,,,,,,,,,,,,
True,fullscreen,4520.0,0.0-0.0,,,2445,,,,,,,,,,,,,,,,,,,
True,fullscreen,1094832.0,0.0-4.0,,,2445,,,,,,,,,,,,,,,,,,,
True,fullscreen,6112.0,0.0-0.0,,,978,,,,,,,,,,,,,,,,,,,
True,fullscreen,1482825.0,0.0-4.0,,,978,,,,,,,,,,,,,,,,,,,
True,fullscreen,11924.0,0.0-0.0,,,2819,,,,,,,,,,,,,,,,,,,
True,fullscreen,1964596.0,0.0-4.0,,,2819,,,,,,,,,,,,,,,,,,,
True,fullscreen,6213.0,0.0-0.0,,,2765,,,,,,,,,,,,,,,,,,,
True,fullscreen,919324.0,0.0-4.0,,,2765,,,,,,,,,,,,,,,,,,,
True,fullscreen,3595.0,0.0-0.0,,,2766,,,,,,,,,,,,,,,,,,,
True,fullscreen,1893883.0,0.0-4.0,,,2766,,,,,,,,,,,,,,,,,,,
True,fullscreen,12460.0,0.0-0.0,,,2721,,,,,,,,,,,,,,,,,,,
True,fullscreen,1770523.0,0.0-4.0,,,2721,,,,,,,,,,,,,,,,,,,
True,fullscreen,5037.0,0.0-0.0,,,2697,,,,,,,,,,,,,,,,,,,
True,fullscreen,1164489.0,0.0-4.0,,,2697,,,,,,,,,,,,,,,,,,,
True,fullscreen,7755.0,0.0-0.0,,,2641,,,,,,,,,,,,,,,,,,,
True,fullscreen,1536759.0,0.0-4.0,,,2641,,,,,,,,,,,,,,,,,,,
True,fullscreen,2509.0,0.0-0.0,,,2642,,,,,,,,,,,,,,,,,,,
True,fullscreen,1551535.0,0.0-4.0,,,2642,,,,,,,,,,,,,,,,,,,
True,fullscreen,5288.0,0.0-0.0,,,2602,,,,,,,,,,,,,,,,,,,
True,fullscreen,1783468.0,0.0-4.0,,,2602,,,,,,,,,,,,,,,,,,,
True,fullscreen,3835.0,0.0-0.0,,,2544,,,,,,,,,,,,,,,,,,,
True,fullscreen,1463641.0,0.0-4.0,,,2544,,,,,,,,,,,,,,,,,,,
True,fullscreen,11502.0,0.0-0.0,,,2516,,,,,,,,,,,,,,,,,,,
True,fullscreen,1048587.0,0.0-4.0,,,2516,,,,,,,,,,,,,,,,,,,
True,fullscreen,5837.0,0.0-0.0,,,2481,,,,,,,,,,,,,,,,,,,
True,fullscreen,1183942.0,0.0-4.0,,,2481,,,,,,,,,,,,,,,,,,,
True,fullscreen,6318.0,0.0-0.0,,,1146,,,,,,,,,,,,,,,,,,,
True,fullscreen,2109806.0,0.0-4.0,,,1146,,,,,,,,,,,,,,,,,,,
True,fullscreen,8189.0,0.0-0.0,,,2470,,,,,,,,,,,,,,,,,,,
True,fullscreen,2377553.0,0.0-4.0,,,2470,,,,,,,,,,,,,,,,,,,
True,fullscreen,7608.0,0.0-0.0,,,2398,,,,,,,,,,,,,,,,,,,
True,fullscreen,1889769.0,0.0-4.0,,,2398,,,,,,,,,,,,,,,,,,,
True,fullscreen,16157.0,0.0-0.0,,,2820,,,,,,,,,,,,,,,,,,,
True,fullscreen,3579384.0,0.0-4.0,,,2820,,,,,,,,,,,,,,,,,,,
True,fullscreen,4183.0,0.0-0.0,,,2767,,,,,,,,,,,,,,,,,,,
True,fullscreen,4179390.0,0.0-4.0,,,2767,,,,,,,,,,,,,,,,,,,
True,fullscreen,5586.0,0.0-0.0,,,2768,,,,,,,,,,,,,,,,,,,
True,fullscreen,3861238.0,0.0-4.0,,,2768,,,,,,,,,,,,,,,,,,,
True,fullscreen,4772.0,0.0-0.0,,,2722,,,,,,,,,,,,,,,,,,,
True,fullscreen,1470995.0,0.0-4.0,,,2722,,,,,,,,,,,,,,,,,,,
True,fullscreen,3214.0,0.0-0.0,,,2705,,,,,,,,,,,,,,,,,,,
True,fullscreen,1238624.0,0.0-4.0,,,2705,,,,,,,,,,,,,,,,,,,
True,fullscreen,3369.0,0.0-0.0,,,2643,,,,,,,,,,,,,,,,,,,
True,fullscreen,2607300.0,0.0-4.0,,,2643,,,,,,,,,,,,,,,,,,,
True,fullscreen,8795.0,0.0-0.0,,,2644,,,,,,,,,,,,,,,,,,,
True,fullscreen,373729.0,0.0-4.0,,,2644,,,,,,,,,,,,,,,,,,,
True,fullscreen,4524.0,0.0-0.0,,,2587,,,,,,,,,,,,,,,,,,,
True,fullscreen,1683601.0,0.0-4.0,,,2587,,,,,,,,,,,,,,,,,,,
True,fullscreen,3421.0,0.0-0.0,,,2545,,,,,,,,,,,,,,,,,,,
True,fullscreen,1713836.0,0.0-4.0,,,2545,,,,,,,,,,,,,,,,,,,
True,fullscreen,5460.0,0.0-0.0,,,2588,,,,,,,,,,,,,,,,,,,
True,fullscreen,2543545.0,0.0-4.0,,,2588,,,,,,,,,,,,,,,,,,,
True,fullscreen,3857.0,0.0-0.0,,,2546,,,,,,,,,,,,,,,,,,,
True,fullscreen,2834574.0,0.0-4.0,,,2546,,,,,,,,,,,,,,,,,,,
True,fullscreen,3390.0,0.0-0.0,,,2460,,,,,,,,,,,,,,,,,,,
True,fullscreen,2899185.0,0.0-4.0,,,2460,,,,,,,,,,,,,,,,,,,
True,fullscreen,2179.0,0.0-0.0,,,2459,,,,,,,,,,,,,,,,,,,
True,fullscreen,2508719.0,0.0-4.0,,,2459,,,,,,,,,,,,,,,,,,,
True,fullscreen,4699.0,0.0-0.0,,,2447,,,,,,,,,,,,,,,,,,,
True,fullscreen,2531963.0,0.0-4.0,,,2447,,,,,,,,,,,,,,,,,,,
True,fullscreen,8447.0,0.0-0.0,,,2431,,,,,,,,,,,,,,,,,,,
True,fullscreen,2556142.0,0.0-4.0,,,2431,,,,,,,,,,,,,,,,,,,
True,fullscreen,2862.0,0.0-0.0,,,2821,,,,,,,,,,,,,,,,,,,
True,fullscreen,1697400.0,0.0-4.0,,,2821,,,,,,,,,,,,,,,,,,,
True,fullscreen,57723.0,0.0-0.0,,,823,,,,,,,,,,,,,,,,,,,
True,fullscreen,3957627.0,0.0-4.0,,,823,,,,,,,,,,,,,,,,,,,
True,fullscreen,5522.0,0.0-0.0,,,2740,,,,,,,,,,,,,,,,,,,
True,fullscreen,1910310.0,0.0-4.0,,,2740,,,,,,,,,,,,,,,,,,,
True,fullscreen,2524.0,0.0-0.0,,,2723,,,,,,,,,,,,,,,,,,,
True,fullscreen,4338388.0,0.0-4.0,,,2723,,,,,,,,,,,,,,,,,,,
True,fullscreen,5505.0,0.0-0.0,,,2706,,,,,,,,,,,,,,,,,,,
True,fullscreen,2305239.0,0.0-4.0,,,2706,,,,,,,,,,,,,,,,,,,
True,fullscreen,18152.0,0.0-0.0,,,2645,,,,,,,,,,,,,,,,,,,
True,fullscreen,5346956.0,0.0-4.0,,,2645,,,,,,,,,,,,,,,,,,,
True,fullscreen,4253.0,0.0-0.0,,,2598,,,,,,,,,,,,,,,,,,,
True,fullscreen,1533705.0,0.0-4.0,,,2598,,,,,,,,,,,,,,,,,,,
True,fullscreen,4983.0,0.0-0.0,,,2589,,,,,,,,,,,,,,,,,,,
True,fullscreen,3115759.0,0.0-4.0,,,2589,,,,,,,,,,,,,,,,,,,
True,fullscreen,3246.0,0.0-0.0,,,2547,,,,,,,,,,,,,,,,,,,
True,fullscreen,1166069.0,0.0-4.0,,,2547,,,,,,,,,,,,,,,,,,,
True,fullscreen,4459.0,0.0-0.0,,,2548,,,,,,,,,,,,,,,,,,,
True,fullscreen,1370097.0,0.0-4.0,,,2548,,,,,,,,,,,,,,,,,,,
True,fullscreen,6637.0,0.0-0.0,,,2461,,,,,,,,,,,,,,,,,,,
True,fullscreen,990505.0,0.0-4.0,,,2461,,,,,,,,,,,,,,,,,,,
True,fullscreen,4049.0,0.0-0.0,,,2448,,,,,,,,,,,,,,,,,,,
True,fullscreen,2678037.0,0.0-4.0,,,2448,,,,,,,,,,,,,,,,,,,
True,fullscreen,3855.0,0.0-0.0,,,2423,,,,,,,,,,,,,,,,,,,
True,fullscreen,4513731.0,0.0-4.0,,,2423,,,,,,,,,,,,,,,,,,,
True,fullscreen,2533.0,0.0-0.0,,,2385,,,,,,,,,,,,,,,,,,,
True,fullscreen,1048300.0,0.0-4.0,,,2385,,,,,,,,,,,,,,,,,,,
True,fullscreen,6936.0,0.0-0.0,,,2822,,,,,,,,,,,,,,,,,,,
True,fullscreen,1369463.0,0.0-4.0,,,2822,,,,,,,,,,,,,,,,,,,
True,fullscreen,12766.0,0.0-0.0,,,1732,,,,,,,,,,,,,,,,,,,
True,fullscreen,2040386.0,0.0-4.0,,,1732,,,,,,,,,,,,,,,,,,,
True,fullscreen,3261.0,0.0-0.0,,,1713,,,,,,,,,,,,,,,,,,,
True,fullscreen,3091543.0,0.0-4.0,,,1713,,,,,,,,,,,,,,,,,,,
True,fullscreen,3079.0,0.0-0.0,,,2707,,,,,,,,,,,,,,,,,,,
True,fullscreen,2150182.0,0.0-4.0,,,2707,,,,,,,,,,,,,,,,,,,
True,fullscreen,3188.0,0.0-0.0,,,2646,,,,,,,,,,,,,,,,,,,
True,fullscreen,832349.0,0.0-4.0,,,2646,,,,,,,,,,,,,,,,,,,
True,fullscreen,2538.0,0.0-0.0,,,2647,,,,,,,,,,,,,,,,,,,
True,fullscreen,1593313.0,0.0-4.0,,,2647,,,,,,,,,,,,,,,,,,,
True,fullscreen,3480.0,0.0-0.0,,,2604,,,,,,,,,,,,,,,,,,,
True,fullscreen,2805916.0,0.0-4.0,,,2604,,,,,,,,,,,,,,,,,,,
True,fullscreen,5725.0,0.0-0.0,,,2590,,,,,,,,,,,,,,,,,,,
True,fullscreen,887028.0,0.0-4.0,,,2590,,,,,,,,,,,,,,,,,,,
True,fullscreen,21949.0,0.0-0.0,,,2549,,,,,,,,,,,,,,,,,,,
True,fullscreen,1443646.0,0.0-4.0,,,2549,,,,,,,,,,,,,,,,,,,
True,fullscreen,3141.0,0.0-0.0,,,2550,,,,,,,,,,,,,,,,,,,
True,fullscreen,1521835.0,0.0-4.0,,,2550,,,,,,,,,,,,,,,,,,,
True,fullscreen,2778.0,0.0-0.0,,,2492,,,,,,,,,,,,,,,,,,,
True,fullscreen,1369782.0,0.0-4.0,,,2492,,,,,,,,,,,,,,,,,,,
True,fullscreen,7390.0,0.0-0.0,,,2476,,,,,,,,,,,,,,,,,,,
True,fullscreen,1989554.0,0.0-4.0,,,2476,,,,,,,,,,,,,,,,,,,
True,fullscreen,1949.0,0.0-0.0,,,2432,,,,,,,,,,,,,,,,,,,
True,fullscreen,2481736.0,0.0-4.0,,,2432,,,,,,,,,,,,,,,,,,,
True,fullscreen,2483.0,0.0-0.0,,,2386,,,,,,,,,,,,,,,,,,,
True,fullscreen,980346.0,0.0-4.0,,,2386,,,,,,,,,,,,,,,,,,,
True,fullscreen,3698.0,0.0-0.0,,,2769,,,,,,,,,,,,,,,,,,,
True,fullscreen,583955.0,0.0-4.0,,,2769,,,,,,,,,,,,,,,,,,,
True,fullscreen,5156.0,0.0-0.0,,,2770,,,,,,,,,,,,,,,,,,,
True,fullscreen,1485743.0,0.0-4.0,,,2770,,,,,,,,,,,,,,,,,,,
True,fullscreen,6033.0,0.0-0.0,,,2741,,,,,,,,,,,,,,,,,,,
True,fullscreen,3076125.0,0.0-4.0,,,2741,,,,,,,,,,,,,,,,,,,
True,fullscreen,6398.0,0.0-0.0,,,2724,,,,,,,,,,,,,,,,,,,
True,fullscreen,1683444.0,0.0-4.0,,,2724,,,,,,,,,,,,,,,,,,,
True,fullscreen,3107.0,0.0-0.0,,,2648,,,,,,,,,,,,,,,,,,,
True,fullscreen,1826513.0,0.0-4.0,,,2648,,,,,,,,,,,,,,,,,,,
True,fullscreen,3063.0,0.0-0.0,,,2649,,,,,,,,,,,,,,,,,,,
True,fullscreen,4792982.0,0.0-4.0,,,2649,,,,,,,,,,,,,,,,,,,
True,fullscreen,2828.0,0.0-0.0,,,2605,,,,,,,,,,,,,,,,,,,
True,fullscreen,2064971.0,0.0-4.0,,,2605,,,,,,,,,,,,,,,,,,,
True,fullscreen,5792.0,0.0-0.0,,,2591,,,,,,,,,,,,,,,,,,,
True,fullscreen,3613549.0,0.0-4.0,,,2591,,,,,,,,,,,,,,,,,,,
True,fullscreen,3546.0,0.0-0.0,,,2551,,,,,,,,,,,,,,,,,,,
True,fullscreen,3524281.0,0.0-4.0,,,2551,,,,,,,,,,,,,,,,,,,
True,fullscreen,3007.0,0.0-0.0,,,2517,,,,,,,,,,,,,,,,,,,
True,fullscreen,1847641.0,0.0-4.0,,,2517,,,,,,,,,,,,,,,,,,,
True,fullscreen,5551.0,0.0-0.0,,,2483,,,,,,,,,,,,,,,,,,,
True,fullscreen,4010962.0,0.0-4.0,,,2483,,,,,,,,,,,,,,,,,,,
True,fullscreen,3835.0,0.0-0.0,,,2449,,,,,,,,,,,,,,,,,,,
True,fullscreen,1458854.0,0.0-4.0,,,2449,,,,,,,,,,,,,,,,,,,
True,fullscreen,2755.0,0.0-0.0,,,2424,,,,,,,,,,,,,,,,,,,
True,fullscreen,1080001.0,0.0-4.0,,,2424,,,,,,,,,,,,,,,,,,,
True,fullscreen,3314.0,0.0-0.0,,,2399,,,,,,,,,,,,,,,,,,,
True,fullscreen,3683642.0,0.0-4.0,,,2399,,,,,,,,,,,,,,,,,,,
True,fullscreen,3172.0,0.0-0.0,,,2771,,,,,,,,,,,,,,,,,,,
True,fullscreen,1014599.0,0.0-4.0,,,2771,,,,,,,,,,,,,,,,,,,
True,fullscreen,4707.0,0.0-0.0,,,2772,,,,,,,,,,,,,,,,,,,
True,fullscreen,3559525.0,0.0-4.0,,,2772,,,,,,,,,,,,,,,,,,,
True,fullscreen,3796.0,0.0-0.0,,,2725,,,,,,,,,,,,,,,,,,,
True,fullscreen,3205291.0,0.0-4.0,,,2725,,,,,,,,,,,,,,,,,,,
True,fullscreen,6548.0,0.0-0.0,,,2726,,,,,,,,,,,,,,,,,,,
True,fullscreen,1553341.0,0.0-4.0,,,2726,,,,,,,,,,,,,,,,,,,
True,fullscreen,5146.0,0.0-0.0,,,2695,,,,,,,,,,,,,,,,,,,
True,fullscreen,3913188.0,0.0-4.0,,,2695,,,,,,,,,,,,,,,,,,,
True,fullscreen,4597.0,0.0-0.0,,,2650,,,,,,,,,,,,,,,,,,,
True,fullscreen,1544082.0,0.0-4.0,,,2650,,,,,,,,,,,,,,,,,,,
True,fullscreen,5876.0,0.0-0.0,,,2651,,,,,,,,,,,,,,,,,,,
True,fullscreen,855054.0,0.0-4.0,,,2651,,,,,,,,,,,,,,,,,,,
True,fullscreen,18508.0,0.0-0.0,,,2606,,,,,,,,,,,,,,,,,,,
True,fullscreen,2555990.0,0.0-4.0,,,2606,,,,,,,,,,,,,,,,,,,
True,fullscreen,3763.0,0.0-0.0,,,2552,,,,,,,,,,,,,,,,,,,
True,fullscreen,1504400.0,0.0-4.0,,,2552,,,,,,,,,,,,,,,,,,,
True,fullscreen,3844.0,0.0-0.0,,,1759,,,,,,,,,,,,,,,,,,,
True,fullscreen,772213.0,0.0-4.0,,,1759,,,,,,,,,,,,,,,,,,,
True,fullscreen,8141.0,0.0-0.0,,,2484,,,,,,,,,,,,,,,,,,,
True,fullscreen,1927912.0,0.0-4.0,,,2484,,,,,,,,,,,,,,,,,,,
True,fullscreen,4952.0,0.0-0.0,,,2477,,,,,,,,,,,,,,,,,,,
True,fullscreen,1109529.0,0.0-4.0,,,2477,,,,,,,,,,,,,,,,,,,
True,fullscreen,4744.0,0.0-0.0,,,2420,,,,,,,,,,,,,,,,,,,
True,fullscreen,1320040.0,0.0-4.0,,,2420,,,,,,,,,,,,,,,,,,,
True,fullscreen,2785.0,0.0-0.0,,,2416,,,,,,,,,,,,,,,,,,,
True,fullscreen,1763559.0,0.0-4.0,,,2416,,,,,,,,,,,,,,,,,,,
True,fullscreen,21345.0,0.0-0.0,,,2773,,,,,,,,,,,,,,,,,,,
True,fullscreen,5254215.0,0.0-4.0,,,2773,,,,,,,,,,,,,,,,,,,
True,fullscreen,5501.0,0.0-0.0,,,2774,,,,,,,,,,,,,,,,,,,
True,fullscreen,2059835.0,0.0-4.0,,,2774,,,,,,,,,,,,,,,,,,,
True,fullscreen,4424.0,0.0-0.0,,,2775,,,,,,,,,,,,,,,,,,,
True,fullscreen,980321.0,0.0-4.0,,,2775,,,,,,,,,,,,,,,,,,,
True,fullscreen,4851.0,0.0-0.0,,,2727,,,,,,,,,,,,,,,,,,,
True,fullscreen,1435416.0,0.0-4.0,,,2727,,,,,,,,,,,,,,,,,,,
True,fullscreen,2955.0,0.0-0.0,,,2652,,,,,,,,,,,,,,,,,,,
True,fullscreen,3077393.0,0.0-4.0,,,2652,,,,,,,,,,,,,,,,,,,
True,fullscreen,8648.0,0.0-0.0,,,2653,,,,,,,,,,,,,,,,,,,
True,fullscreen,1522809.0,0.0-4.0,,,2653,,,,,,,,,,,,,,,,,,,
True,fullscreen,2374.0,0.0-0.0,,,2607,,,,,,,,,,,,,,,,,,,
True,fullscreen,1306333.0,0.0-4.0,,,2607,,,,,,,,,,,,,,,,,,,
True,fullscreen,2204.0,0.0-0.0,,,2592,,,,,,,,,,,,,,,,,,,
True,fullscreen,854562.0,0.0-4.0,,,2592,,,,,,,,,,,,,,,,,,,
True,fullscreen,6791.0,0.0-0.0,,,2553,,,,,,,,,,,,,,,,,,,
True,fullscreen,1378617.0,0.0-4.0,,,2553,,,,,,,,,,,,,,,,,,,
True,fullscreen,4938.0,0.0-0.0,,,2471,,,,,,,,,,,,,,,,,,,
True,fullscreen,1468224.0,0.0-4.0,,,2471,,,,,,,,,,,,,,,,,,,
True,fullscreen,3780.0,0.0-0.0,,,2463,,,,,,,,,,,,,,,,,,,
True,fullscreen,2324126.0,0.0-4.0,,,2463,,,,,,,,,,,,,,,,,,,
True,fullscreen,11168.0,0.0-0.0,,,2450,,,,,,,,,,,,,,,,,,,
True,fullscreen,3583948.0,0.0-4.0,,,2450,,,,,,,,,,,,,,,,,,,
True,fullscreen,3197.0,0.0-0.0,,,2433,,,,,,,,,,,,,,,,,,,
True,fullscreen,5267105.0,0.0-4.0,,,2433,,,,,,,,,,,,,,,,,,,
True,fullscreen,2439.0,0.0-0.0,,,2387,,,,,,,,,,,,,,,,,,,
True,fullscreen,926300.0,0.0-4.0,,,2387,,,,,,,,,,,,,,,,,,,
True,fullscreen,4505.0,0.0-0.0,,,2823,,,,,,,,,,,,,,,,,,,
True,fullscreen,1984104.0,0.0-4.0,,,2823,,,,,,,,,,,,,,,,,,,
True,fullscreen,3966.0,0.0-0.0,,,2776,,,,,,,,,,,,,,,,,,,
True,fullscreen,883907.0,0.0-4.0,,,2776,,,,,,,,,,,,,,,,,,,
True,fullscreen,8775.0,0.0-0.0,,,2777,,,,,,,,,,,,,,,,,,,
True,fullscreen,2346043.0,0.0-4.0,,,2777,,,,,,,,,,,,,,,,,,,
True,fullscreen,2911.0,0.0-0.0,,,2728,,,,,,,,,,,,,,,,,,,
True,fullscreen,2201792.0,0.0-4.0,,,2728,,,,,,,,,,,,,,,,,,,
True,fullscreen,4419.0,0.0-0.0,,,2691,,,,,,,,,,,,,,,,,,,
True,fullscreen,1749446.0,0.0-4.0,,,2691,,,,,,,,,,,,,,,,,,,
True,fullscreen,7706.0,0.0-0.0,,,2654,,,,,,,,,,,,,,,,,,,
True,fullscreen,1641393.0,0.0-4.0,,,2654,,,,,,,,,,,,,,,,,,,
True,fullscreen,9975.0,0.0-0.0,,,2655,,,,,,,,,,,,,,,,,,,
True,fullscreen,1549299.0,0.0-4.0,,,2655,,,,,,,,,,,,,,,,,,,
True,fullscreen,6990.0,0.0-0.0,,,2554,,,,,,,,,,,,,,,,,,,
True,fullscreen,1101941.0,0.0-4.0,,,2554,,,,,,,,,,,,,,,,,,,
True,fullscreen,3089.0,0.0-0.0,,,2555,,,,,,,,,,,,,,,,,,,
True,fullscreen,1135541.0,0.0-4.0,,,2555,,,,,,,,,,,,,,,,,,,
True,fullscreen,13609.0,0.0-0.0,,,2518,,,,,,,,,,,,,,,,,,,
True,fullscreen,1003457.0,0.0-4.0,,,2518,,,,,,,,,,,,,,,,,,,
True,fullscreen,2108.0,0.0-0.0,,,2494,,,,,,,,,,,,,,,,,,,
True,fullscreen,1373621.0,0.0-4.0,,,2494,,,,,,,,,,,,,,,,,,,
True,fullscreen,9603.0,0.0-0.0,,,2472,,,,,,,,,,,,,,,,,,,
True,fullscreen,1443735.0,0.0-4.0,,,2472,,,,,,,,,,,,,,,,,,,
True,fullscreen,5083.0,0.0-0.0,,,2417,,,,,,,,,,,,,,,,,,,
True,fullscreen,1024905.0,0.0-4.0,,,2417,,,,,,,,,,,,,,,,,,,
True,fullscreen,12783.0,0.0-0.0,,,2388,,,,,,,,,,,,,,,,,,,
True,fullscreen,1708175.0,0.0-4.0,,,2388,,,,,,,,,,,,,,,,,,,
True,fullscreen,5105.0,0.0-0.0,,,2824,,,,,,,,,,,,,,,,,,,
True,fullscreen,3589009.0,0.0-4.0,,,2824,,,,,,,,,,,,,,,,,,,
True,fullscreen,9377.0,0.0-0.0,,,2778,,,,,,,,,,,,,,,,,,,
True,fullscreen,2509881.0,0.0-4.0,,,2778,,,,,,,,,,,,,,,,,,,
True,fullscreen,4498.0,0.0-0.0,,,2779,,,,,,,,,,,,,,,,,,,
True,fullscreen,1564989.0,0.0-4.0,,,2779,,,,,,,,,,,,,,,,,,,
True,fullscreen,4026.0,0.0-0.0,,,2729,,,,,,,,,,,,,,,,,,,
True,fullscreen,1242822.0,0.0-4.0,,,2729,,,,,,,,,,,,,,,,,,,
True,fullscreen,4997.0,0.0-0.0,,,2708,,,,,,,,,,,,,,,,,,,
True,fullscreen,1513886.0,0.0-4.0,,,2708,,,,,,,,,,,,,,,,,,,
True,fullscreen,199619.0,0.0-0.0,,,2656,,,,,,,,,,,,,,,,,,,
True,fullscreen,3759249.0,0.0-4.0,,,2656,,,,,,,,,,,,,,,,,,,
True,fullscreen,3758.0,0.0-0.0,,,2657,,,,,,,,,,,,,,,,,,,
True,fullscreen,2793041.0,0.0-4.0,,,2657,,,,,,,,,,,,,,,,,,,
True,fullscreen,3701.0,0.0-0.0,,,2556,,,,,,,,,,,,,,,,,,,
True,fullscreen,1993314.0,0.0-4.0,,,2556,,,,,,,,,,,,,,,,,,,
True,fullscreen,3674.0,0.0-0.0,,,2557,,,,,,,,,,,,,,,,,,,
True,fullscreen,2359351.0,0.0-4.0,,,2557,,,,,,,,,,,,,,,,,,,
True,fullscreen,3158.0,0.0-0.0,,,2558,,,,,,,,,,,,,,,,,,,
True,fullscreen,2187591.0,0.0-4.0,,,2558,,,,,,,,,,,,,,,,,,,
True,fullscreen,3645.0,0.0-0.0,,,2495,,,,,,,,,,,,,,,,,,,
True,fullscreen,1319600.0,0.0-4.0,,,2495,,,,,,,,,,,,,,,,,,,
True,fullscreen,2027.0,0.0-0.0,,,2434,,,,,,,,,,,,,,,,,,,
True,fullscreen,917231.0,0.0-4.0,,,2434,,,,,,,,,,,,,,,,,,,
True,fullscreen,4034.0,0.0-0.0,,,2425,,,,,,,,,,,,,,,,,,,
True,fullscreen,917142.0,0.0-4.0,,,2425,,,,,,,,,,,,,,,,,,,
True,fullscreen,3793.0,0.0-0.0,,,2400,,,,,,,,,,,,,,,,,,,
True,fullscreen,3384251.0,0.0-4.0,,,2400,,,,,,,,,,,,,,,,,,,
True,fullscreen,4521.0,0.0-0.0,,,2825,,,,,,,,,,,,,,,,,,,
True,fullscreen,1023483.0,0.0-4.0,,,2825,,,,,,,,,,,,,,,,,,,
True,fullscreen,7134.0,0.0-0.0,,,2780,,,,,,,,,,,,,,,,,,,
True,fullscreen,1338735.0,0.0-4.0,,,2780,,,,,,,,,,,,,,,,,,,
True,fullscreen,10399.0,0.0-0.0,,,2781,,,,,,,,,,,,,,,,,,,
True,fullscreen,1365790.0,0.0-4.0,,,2781,,,,,,,,,,,,,,,,,,,
True,fullscreen,6025.0,0.0-0.0,,,2782,,,,,,,,,,,,,,,,,,,
True,fullscreen,1070598.0,0.0-4.0,,,2782,,,,,,,,,,,,,,,,,,,
True,fullscreen,4209.0,0.0-0.0,,,2698,,,,,,,,,,,,,,,,,,,
True,fullscreen,994820.0,0.0-4.0,,,2698,,,,,,,,,,,,,,,,,,,
True,fullscreen,11232.0,0.0-0.0,,,2658,,,,,,,,,,,,,,,,,,,
True,fullscreen,1348763.0,0.0-4.0,,,2658,,,,,,,,,,,,,,,,,,,
True,fullscreen,10079.0,0.0-0.0,,,2659,,,,,,,,,,,,,,,,,,,
True,fullscreen,2215467.0,0.0-4.0,,,2659,,,,,,,,,,,,,,,,,,,
True,fullscreen,2329.0,0.0-0.0,,,2660,,,,,,,,,,,,,,,,,,,
True,fullscreen,990794.0,0.0-4.0,,,2660,,,,,,,,,,,,,,,,,,,
True,fullscreen,17146.0,0.0-0.0,,,2559,,,,,,,,,,,,,,,,,,,
True,fullscreen,864883.0,0.0-4.0,,,2559,,,,,,,,,,,,,,,,,,,
True,fullscreen,5478.0,0.0-0.0,,,2519,,,,,,,,,,,,,,,,,,,
True,fullscreen,1025697.0,0.0-4.0,,,2519,,,,,,,,,,,,,,,,,,,
True,fullscreen,3575.0,0.0-0.0,,,2485,,,,,,,,,,,,,,,,,,,
True,fullscreen,1332286.0,0.0-4.0,,,2485,,,,,,,,,,,,,,,,,,,
True,fullscreen,5340.0,0.0-0.0,,,2473,,,,,,,,,,,,,,,,,,,
True,fullscreen,1200876.0,0.0-4.0,,,2473,,,,,,,,,,,,,,,,,,,
True,fullscreen,4198.0,0.0-0.0,,,2435,,,,,,,,,,,,,,,,,,,
True,fullscreen,796110.0,0.0-4.0,,,2435,,,,,,,,,,,,,,,,,,,
True,fullscreen,3035.0,0.0-0.0,,,2389,,,,,,,,,,,,,,,,,,,
True,fullscreen,1097036.0,0.0-4.0,,,2389,,,,,,,,,,,,,,,,,,,
True,fullscreen,7074.0,0.0-0.0,,,2826,,,,,,,,,,,,,,,,,,,
True,fullscreen,2372550.0,0.0-4.0,,,2826,,,,,,,,,,,,,,,,,,,
True,fullscreen,5107.0,0.0-0.0,,,2783,,,,,,,,,,,,,,,,,,,
True,fullscreen,941141.0,0.0-4.0,,,2783,,,,,,,,,,,,,,,,,,,
True,fullscreen,9303.0,0.0-0.0,,,2784,,,,,,,,,,,,,,,,,,,
True,fullscreen,3816234.0,0.0-4.0,,,2784,,,,,,,,,,,,,,,,,,,
True,fullscreen,7704.0,0.0-0.0,,,2730,,,,,,,,,,,,,,,,,,,
True,fullscreen,2572148.0,0.0-4.0,,,2730,,,,,,,,,,,,,,,,,,,
True,fullscreen,7602.0,0.0-0.0,,,2692,,,,,,,,,,,,,,,,,,,
True,fullscreen,2620721.0,0.0-4.0,,,2692,,,,,,,,,,,,,,,,,,,
True,fullscreen,4748.0,0.0-0.0,,,2661,,,,,,,,,,,,,,,,,,,
True,fullscreen,1364182.0,0.0-4.0,,,2661,,,,,,,,,,,,,,,,,,,
True,fullscreen,2905.0,0.0-0.0,,,2662,,,,,,,,,,,,,,,,,,,
True,fullscreen,2412892.0,0.0-4.0,,,2662,,,,,,,,,,,,,,,,,,,
True,fullscreen,4452.0,0.0-0.0,,,2560,,,,,,,,,,,,,,,,,,,
True,fullscreen,1328720.0,0.0-4.0,,,2560,,,,,,,,,,,,,,,,,,,
True,fullscreen,5456.0,0.0-0.0,,,2561,,,,,,,,,,,,,,,,,,,
True,fullscreen,2096431.0,0.0-4.0,,,2561,,,,,,,,,,,,,,,,,,,
True,fullscreen,4288.0,0.0-0.0,,,2562,,,,,,,,,,,,,,,,,,,
True,fullscreen,1913746.0,0.0-4.0,,,2562,,,,,,,,,,,,,,,,,,,
True,fullscreen,17127.0,0.0-0.0,,,2504,,,,,,,,,,,,,,,,,,,
True,fullscreen,1228815.0,0.0-4.0,,,2504,,,,,,,,,,,,,,,,,,,
True,fullscreen,3474.0,0.0-0.0,,,2452,,,,,,,,,,,,,,,,,,,
True,fullscreen,2070624.0,0.0-4.0,,,2452,,,,,,,,,,,,,,,,,,,
True,fullscreen,7698.0,0.0-0.0,,,2402,,,,,,,,,,,,,,,,,,,
True,fullscreen,2722938.0,0.0-4.0,,,2402,,,,,,,,,,,,,,,,,,,
True,fullscreen,2537.0,0.0-0.0,,,2390,,,,,,,,,,,,,,,,,,,
True,fullscreen,1393630.0,0.0-4.0,,,2390,,,,,,,,,,,,,,,,,,,
True,fullscreen,6391.0,0.0-0.0,,,2827,,,,,,,,,,,,,,,,,,,
True,fullscreen,3237321.0,0.0-4.0,,,2827,,,,,,,,,,,,,,,,,,,
True,fullscreen,4154.0,0.0-0.0,,,2785,,,,,,,,,,,,,,,,,,,
True,fullscreen,1110215.0,0.0-4.0,,,2785,,,,,,,,,,,,,,,,,,,
True,fullscreen,4633.0,0.0-0.0,,,2743,,,,,,,,,,,,,,,,,,,
True,fullscreen,3135235.0,0.0-4.0,,,2743,,,,,,,,,,,,,,,,,,,
True,fullscreen,3135.0,0.0-0.0,,,2731,,,,,,,,,,,,,,,,,,,
True,fullscreen,2943319.0,0.0-4.0,,,2731,,,,,,,,,,,,,,,,,,,
True,fullscreen,4669.0,0.0-0.0,,,2709,,,,,,,,,,,,,,,,,,,
True,fullscreen,951555.0,0.0-4.0,,,2709,,,,,,,,,,,,,,,,,,,
True,fullscreen,3468.0,0.0-0.0,,,2663,,,,,,,,,,,,,,,,,,,
True,fullscreen,1461707.0,0.0-4.0,,,2663,,,,,,,,,,,,,,,,,,,
True,fullscreen,3607.0,0.0-0.0,,,2664,,,,,,,,,,,,,,,,,,,
True,fullscreen,849983.0,0.0-4.0,,,2664,,,,,,,,,,,,,,,,,,,
True,fullscreen,4136.0,0.0-0.0,,,2563,,,,,,,,,,,,,,,,,,,
True,fullscreen,3394029.0,0.0-4.0,,,2563,,,,,,,,,,,,,,,,,,,
True,fullscreen,5864.0,0.0-0.0,,,2564,,,,,,,,,,,,,,,,,,,
True,fullscreen,2480877.0,0.0-4.0,,,2564,,,,,,,,,,,,,,,,,,,
True,fullscreen,4168.0,0.0-0.0,,,2565,,,,,,,,,,,,,,,,,,,
True,fullscreen,3107052.0,0.0-4.0,,,2565,,,,,,,,,,,,,,,,,,,
True,fullscreen,3566.0,0.0-0.0,,,2509,,,,,,,,,,,,,,,,,,,
True,fullscreen,3192372.0,0.0-4.0,,,2509,,,,,,,,,,,,,,,,,,,
True,fullscreen,5947.0,0.0-0.0,,,2478,,,,,,,,,,,,,,,,,,,
True,fullscreen,2881650.0,0.0-4.0,,,2478,,,,,,,,,,,,,,,,,,,
True,fullscreen,5526.0,0.0-0.0,,,2436,,,,,,,,,,,,,,,,,,,
True,fullscreen,1053463.0,0.0-4.0,,,2436,,,,,,,,,,,,,,,,,,,
True,fullscreen,5474.0,0.0-0.0,,,2391,,,,,,,,,,,,,,,,,,,
True,fullscreen,2519750.0,0.0-4.0,,,2391,,,,,,,,,,,,,,,,,,,
True,fullscreen,9326.0,0.0-0.0,,,2786,,,,,,,,,,,,,,,,,,,
True,fullscreen,1418825.0,0.0-4.0,,,2786,,,,,,,,,,,,,,,,,,,
True,fullscreen,2920.0,0.0-0.0,,,2787,,,,,,,,,,,,,,,,,,,
True,fullscreen,1531988.0,0.0-4.0,,,2787,,,,,,,,,,,,,,,,,,,
True,fullscreen,3108.0,0.0-0.0,,,2788,,,,,,,,,,,,,,,,,,,
True,fullscreen,1366925.0,0.0-4.0,,,2788,,,,,,,,,,,,,,,,,,,
True,fullscreen,4438.0,0.0-0.0,,,2732,,,,,,,,,,,,,,,,,,,
True,fullscreen,1707995.0,0.0-4.0,,,2732,,,,,,,,,,,,,,,,,,,
True,fullscreen,4162.0,0.0-0.0,,,2693,,,,,,,,,,,,,,,,,,,
True,fullscreen,1897178.0,0.0-4.0,,,2693,,,,,,,,,,,,,,,,,,,
True,fullscreen,4567.0,0.0-0.0,,,2665,,,,,,,,,,,,,,,,,,,
True,fullscreen,1855286.0,0.0-4.0,,,2665,,,,,,,,,,,,,,,,,,,
True,fullscreen,5276.0,0.0-0.0,,,2666,,,,,,,,,,,,,,,,,,,
True,fullscreen,1210147.0,0.0-4.0,,,2666,,,,,,,,,,,,,,,,,,,
True,fullscreen,3347.0,0.0-0.0,,,2566,,,,,,,,,,,,,,,,,,,
True,fullscreen,1313853.0,0.0-4.0,,,2566,,,,,,,,,,,,,,,,,,,
True,fullscreen,29411.0,0.0-0.0,,,2567,,,,,,,,,,,,,,,,,,,
True,fullscreen,964905.0,0.0-4.0,,,2567,,,,,,,,,,,,,,,,,,,
True,fullscreen,3630.0,0.0-0.0,,,2568,,,,,,,,,,,,,,,,,,,
True,fullscreen,1845444.0,0.0-4.0,,,2568,,,,,,,,,,,,,,,,,,,
True,fullscreen,4050.0,0.0-0.0,,,2486,,,,,,,,,,,,,,,,,,,
True,fullscreen,1592238.0,0.0-4.0,,,2486,,,,,,,,,,,,,,,,,,,
True,fullscreen,4416.0,0.0-0.0,,,2474,,,,,,,,,,,,,,,,,,,
True,fullscreen,1970237.0,0.0-4.0,,,2474,,,,,,,,,,,,,,,,,,,
True,fullscreen,27154.0,0.0-0.0,,,2426,,,,,,,,,,,,,,,,,,,
True,fullscreen,1418969.0,0.0-4.0,,,2426,,,,,,,,,,,,,,,,,,,
True,fullscreen,2507.0,0.0-0.0,,,2392,,,,,,,,,,,,,,,,,,,
True,fullscreen,799142.0,0.0-4.0,,,2392,,,,,,,,,,,,,,,,,,,
True,fullscreen,10510.0,0.0-0.0,,,2789,,,,,,,,,,,,,,,,,,,
True,fullscreen,3759278.0,0.0-4.0,,,2789,,,,,,,,,,,,,,,,,,,
True,fullscreen,4409.0,0.0-0.0,,,2790,,,,,,,,,,,,,,,,,,,
True,fullscreen,2164532.0,0.0-4.0,,,2790,,,,,,,,,,,,,,,,,,,
True,fullscreen,5043.0,0.0-0.0,,,2791,,,,,,,,,,,,,,,,,,,
True,fullscreen,883723.0,0.0-4.0,,,2791,,,,,,,,,,,,,,,,,,,
True,fullscreen,7769.0,0.0-0.0,,,2733,,,,,,,,,,,,,,,,,,,
True,fullscreen,1270713.0,0.0-4.0,,,2733,,,,,,,,,,,,,,,,,,,
True,fullscreen,6063.0,0.0-0.0,,,2694,,,,,,,,,,,,,,,,,,,
True,fullscreen,287638.0,0.0-4.0,,,2694,,,,,,,,,,,,,,,,,,,
True,fullscreen,7920.0,0.0-0.0,,,2667,,,,,,,,,,,,,,,,,,,
True,fullscreen,1009407.0,0.0-4.0,,,2667,,,,,,,,,,,,,,,,,,,
True,fullscreen,6260.0,0.0-0.0,,,2668,,,,,,,,,,,,,,,,,,,
True,fullscreen,2355550.0,0.0-4.0,,,2668,,,,,,,,,,,,,,,,,,,
True,fullscreen,4514.0,0.0-0.0,,,2569,,,,,,,,,,,,,,,,,,,
True,fullscreen,1093829.0,0.0-4.0,,,2569,,,,,,,,,,,,,,,,,,,
True,fullscreen,4816.0,0.0-0.0,,,2570,,,,,,,,,,,,,,,,,,,
True,fullscreen,971810.0,0.0-4.0,,,2570,,,,,,,,,,,,,,,,,,,
True,fullscreen,3323.0,0.0-0.0,,,2512,,,,,,,,,,,,,,,,,,,
True,fullscreen,7836842.0,0.0-4.0,,,2512,,,,,,,,,,,,,,,,,,,
True,fullscreen,3620.0,0.0-0.0,,,2497,,,,,,,,,,,,,,,,,,,
True,fullscreen,893596.0,0.0-4.0,,,2497,,,,,,,,,,,,,,,,,,,
True,fullscreen,7193.0,0.0-0.0,,,2453,,,,,,,,,,,,,,,,,,,
True,fullscreen,1350505.0,0.0-4.0,,,2453,,,,,,,,,,,,,,,,,,,
True,fullscreen,15847.0,0.0-0.0,,,855,,,,,,,,,,,,,,,,,,,
True,fullscreen,1834602.0,0.0-4.0,,,855,,,,,,,,,,,,,,,,,,,
True,fullscreen,7521.0,0.0-0.0,,,2393,,,,,,,,,,,,,,,,,,,
True,fullscreen,1606775.0,0.0-4.0,,,2393,,,,,,,,,,,,,,,,,,,
True,fullscreen,3818.0,0.0-0.0,,,2792,,,,,,,,,,,,,,,,,,,
True,fullscreen,1152847.0,0.0-4.0,,,2792,,,,,,,,,,,,,,,,,,,
True,fullscreen,5574.0,0.0-0.0,,,2793,,,,,,,,,,,,,,,,,,,
True,fullscreen,939873.0,0.0-4.0,,,2793,,,,,,,,,,,,,,,,,,,
True,fullscreen,47987.0,0.0-0.0,,,2744,,,,,,,,,,,,,,,,,,,
True,fullscreen,3451066.0,0.0-4.0,,,2744,,,,,,,,,,,,,,,,,,,
True,fullscreen,6055.0,0.0-0.0,,,2734,,,,,,,,,,,,,,,,,,,
True,fullscreen,2972851.0,0.0-4.0,,,2734,,,,,,,,,,,,,,,,,,,
True,fullscreen,5770.0,0.0-0.0,,,2669,,,,,,,,,,,,,,,,,,,
True,fullscreen,3176952.0,0.0-4.0,,,2669,,,,,,,,,,,,,,,,,,,
True,fullscreen,8444.0,0.0-0.0,,,2670,,,,,,,,,,,,,,,,,,,
True,fullscreen,1850070.0,0.0-4.0,,,2670,,,,,,,,,,,,,,,,,,,
True,fullscreen,7751.0,0.0-0.0,,,2571,,,,,,,,,,,,,,,,,,,
True,fullscreen,2622871.0,0.0-4.0,,,2571,,,,,,,,,,,,,,,,,,,
True,fullscreen,4286.0,0.0-0.0,,,2572,,,,,,,,,,,,,,,,,,,
True,fullscreen,1147713.0,0.0-4.0,,,2572,,,,,,,,,,,,,,,,,,,
True,fullscreen,4737.0,0.0-0.0,,,2573,,,,,,,,,,,,,,,,,,,
True,fullscreen,2938619.0,0.0-4.0,,,2573,,,,,,,,,,,,,,,,,,,
True,fullscreen,183768.0,0.0-0.0,,,2520,,,,,,,,,,,,,,,,,,,
True,fullscreen,1382060.0,0.0-4.0,,,2520,,,,,,,,,,,,,,,,,,,
True,fullscreen,22390.0,0.0-0.0,,,2464,,,,,,,,,,,,,,,,,,,
True,fullscreen,3727115.0,0.0-4.0,,,2464,,,,,,,,,,,,,,,,,,,
True,fullscreen,4199.0,0.0-0.0,,,2454,,,,,,,,,,,,,,,,,,,
True,fullscreen,842188.0,0.0-4.0,,,2454,,,,,,,,,,,,,,,,,,,
True,fullscreen,170047.0,0.0-0.0,,,2437,,,,,,,,,,,,,,,,,,,
True,fullscreen,3741769.0,0.0-4.0,,,2437,,,,,,,,,,,,,,,,,,,
True,fullscreen,2819.0,0.0-0.0,,,2283,,,,,,,,,,,,,,,,,,,
True,fullscreen,772164.0,0.0-4.0,,,2283,,,,,,,,,,,,,,,,,,,
True,fullscreen,3363.0,0.0-0.0,,,2828,,,,,,,,,,,,,,,,,,,
True,fullscreen,1571089.0,0.0-4.0,,,2828,,,,,,,,,,,,,,,,,,,
True,fullscreen,1509369.0,0.0-0.0,,,2794,,,,,,,,,,,,,,,,,,,
True,fullscreen,3479863.0,0.0-4.0,,,2794,,,,,,,,,,,,,,,,,,,
True,fullscreen,6096.0,0.0-0.0,,,2795,,,,,,,,,,,,,,,,,,,
True,fullscreen,1498217.0,0.0-4.0,,,2795,,,,,,,,,,,,,,,,,,,
True,fullscreen,4530.0,0.0-0.0,,,2735,,,,,,,,,,,,,,,,,,,
True,fullscreen,1582346.0,0.0-4.0,,,2735,,,,,,,,,,,,,,,,,,,
True,fullscreen,1738248.0,0.0-0.0,,,2684,,,,,,,,,,,,,,,,,,,
True,fullscreen,3828776.0,0.0-4.0,,,2684,,,,,,,,,,,,,,,,,,,
True,fullscreen,3676.0,0.0-0.0,,,2671,,,,,,,,,,,,,,,,,,,
True,fullscreen,2901579.0,0.0-4.0,,,2671,,,,,,,,,,,,,,,,,,,
True,fullscreen,9319.0,0.0-0.0,,,2608,,,,,,,,,,,,,,,,,,,
True,fullscreen,1671281.0,0.0-4.0,,,2608,,,,,,,,,,,,,,,,,,,
True,fullscreen,4130.0,0.0-0.0,,,2574,,,,,,,,,,,,,,,,,,,
True,fullscreen,2655401.0,0.0-4.0,,,2574,,,,,,,,,,,,,,,,,,,
True,fullscreen,6300.0,0.0-0.0,,,2575,,,,,,,,,,,,,,,,,,,
True,fullscreen,2680454.0,0.0-4.0,,,2575,,,,,,,,,,,,,,,,,,,
True,fullscreen,10931.0,0.0-0.0,,,2465,,,,,,,,,,,,,,,,,,,
True,fullscreen,3279519.0,0.0-4.0,,,2465,,,,,,,,,,,,,,,,,,,
True,fullscreen,4996.0,0.0-0.0,,,2438,,,,,,,,,,,,,,,,,,,
True,fullscreen,4504733.0,0.0-4.0,,,2438,,,,,,,,,,,,,,,,,,,
True,fullscreen,10652.0,0.0-0.0,,,2455,,,,,,,,,,,,,,,,,,,
True,fullscreen,2733904.0,0.0-4.0,,,2455,,,,,,,,,,,,,,,,,,,
True,fullscreen,7381.0,0.0-0.0,,,2427,,,,,,,,,,,,,,,,,,,
True,fullscreen,5318438.0,0.0-4.0,,,2427,,,,,,,,,,,,,,,,,,,
True,fullscreen,6633.0,0.0-0.0,,,2404,,,,,,,,,,,,,,,,,,,
True,fullscreen,1188593.0,0.0-4.0,,,2404,,,,,,,,,,,,,,,,,,,
True,fullscreen,6402.0,0.0-0.0,,,2796,,,,,,,,,,,,,,,,,,,
True,fullscreen,1448905.0,0.0-4.0,,,2796,,,,,,,,,,,,,,,,,,,
True,fullscreen,4384.0,0.0-0.0,,,2797,,,,,,,,,,,,,,,,,,,
True,fullscreen,2070037.0,0.0-4.0,,,2797,,,,,,,,,,,,,,,,,,,
True,fullscreen,16830.0,0.0-0.0,,,2736,,,,,,,,,,,,,,,,,,,
True,fullscreen,2303967.0,0.0-4.0,,,2736,,,,,,,,,,,,,,,,,,,
True,fullscreen,3665.0,0.0-0.0,,,192,,,,,,,,,,,,,,,,,,,
True,fullscreen,1339888.0,0.0-4.0,,,192,,,,,,,,,,,,,,,,,,,
True,fullscreen,4644.0,0.0-0.0,,,2699,,,,,,,,,,,,,,,,,,,
True,fullscreen,3293544.0,0.0-4.0,,,2699,,,,,,,,,,,,,,,,,,,
True,fullscreen,13437.0,0.0-0.0,,,2672,,,,,,,,,,,,,,,,,,,
True,fullscreen,3434679.0,0.0-4.0,,,2672,,,,,,,,,,,,,,,,,,,
True,fullscreen,3395.0,0.0-0.0,,,2673,,,,,,,,,,,,,,,,,,,
True,fullscreen,1066927.0,0.0-4.0,,,2673,,,,,,,,,,,,,,,,,,,
True,fullscreen,8513.0,0.0-0.0,,,2609,,,,,,,,,,,,,,,,,,,
True,fullscreen,3506235.0,0.0-4.0,,,2609,,,,,,,,,,,,,,,,,,,
True,fullscreen,3121.0,0.0-0.0,,,2576,,,,,,,,,,,,,,,,,,,
True,fullscreen,1202491.0,0.0-4.0,,,2576,,,,,,,,,,,,,,,,,,,
True,fullscreen,5861.0,0.0-0.0,,,2577,,,,,,,,,,,,,,,,,,,
True,fullscreen,1099133.0,0.0-4.0,,,2577,,,,,,,,,,,,,,,,,,,
True,fullscreen,2897.0,0.0-0.0,,,2578,,,,,,,,,,,,,,,,,,,
True,fullscreen,1382309.0,0.0-4.0,,,2578,,,,,,,,,,,,,,,,,,,
True,fullscreen,2280.0,0.0-0.0,,,2475,,,,,,,,,,,,,,,,,,,
True,fullscreen,1171548.0,0.0-4.0,,,2475,,,,,,,,,,,,,,,,,,,
True,fullscreen,5258.0,0.0-0.0,,,2405,,,,,,,,,,,,,,,,,,,
True,fullscreen,1309423.0,0.0-4.0,,,2405,,,,,,,,,,,,,,,,,,,
True,fullscreen,3659.0,0.0-0.0,,,2406,,,,,,,,,,,,,,,,,,,
True,fullscreen,3486109.0,0.0-4.0,,,2406,,,,,,,,,,,,,,,,,,,
True,fullscreen,7042.0,0.0-0.0,,,2798,,,,,,,,,,,,,,,,,,,
True,fullscreen,1489862.0,0.0-4.0,,,2798,,,,,,,,,,,,,,,,,,,
True,fullscreen,3514.0,0.0-0.0,,,2799,,,,,,,,,,,,,,,,,,,
True,fullscreen,1128177.0,0.0-4.0,,,2799,,,,,,,,,,,,,,,,,,,
True,fullscreen,3878.0,0.0-0.0,,,2737,,,,,,,,,,,,,,,,,,,
True,fullscreen,981414.0,0.0-4.0,,,2737,,,,,,,,,,,,,,,,,,,
True,fullscreen,4239.0,0.0-0.0,,,2738,,,,,,,,,,,,,,,,,,,
True,fullscreen,2966138.0,0.0-4.0,,,2738,,,,,,,,,,,,,,,,,,,
True,fullscreen,4708.0,0.0-0.0,,,2674,,,,,,,,,,,,,,,,,,,
True,fullscreen,4514315.0,0.0-4.0,,,2674,,,,,,,,,,,,,,,,,,,
True,fullscreen,2883.0,0.0-0.0,,,2675,,,,,,,,,,,,,,,,,,,
True,fullscreen,1843319.0,0.0-4.0,,,2675,,,,,,,,,,,,,,,,,,,
True,fullscreen,3150.0,0.0-0.0,,,2579,,,,,,,,,,,,,,,,,,,
True,fullscreen,5038771.0,0.0-4.0,,,2579,,,,,,,,,,,,,,,,,,,
True,fullscreen,4619.0,0.0-0.0,,,2580,,,,,,,,,,,,,,,,,,,
True,fullscreen,2177516.0,0.0-4.0,,,2580,,,,,,,,,,,,,,,,,,,
True,fullscreen,130840.0,0.0-0.0,,,2581,,,,,,,,,,,,,,,,,,,
True,fullscreen,1424489.0,0.0-4.0,,,2581,,,,,,,,,,,,,,,,,,,
True,fullscreen,200761.0,0.0-0.0,,,1721,,,,,,,,,,,,,,,,,,,
True,fullscreen,5657967.0,0.0-4.0,,,1721,,,,,,,,,,,,,,,,,,,
True,fullscreen,24892.0,0.0-0.0,,,2487,,,,,,,,,,,,,,,,,,,
True,fullscreen,1477619.0,0.0-4.0,,,2487,,,,,,,,,,,,,,,,,,,
True,fullscreen,5274.0,0.0-0.0,,,2456,,,,,,,,,,,,,,,,,,,
True,fullscreen,1356543.0,0.0-4.0,,,2456,,,,,,,,,,,,,,,,,,,
True,fullscreen,3105.0,0.0-0.0,,,2439,,,,,,,,,,,,,,,,,,,
True,fullscreen,1204514.0,0.0-4.0,,,2439,,,,,,,,,,,,,,,,,,,
True,fullscreen,3902.0,0.0-0.0,,,2440,,,,,,,,,,,,,,,,,,,
True,fullscreen,1855977.0,0.0-4.0,,,2440,,,,,,,,,,,,,,,,,,,
True,fullscreen,135875.0,0.0-0.0,,,2800,,,,,,,,,,,,,,,,,,,
True,fullscreen,4582927.0,0.0-4.0,,,2800,,,,,,,,,,,,,,,,,,,
True,fullscreen,3999.0,0.0-0.0,,,2801,,,,,,,,,,,,,,,,,,,
True,fullscreen,2279770.0,0.0-4.0,,,2801,,,,,,,,,,,,,,,,,,,
True,fullscreen,4347.0,0.0-0.0,,,2802,,,,,,,,,,,,,,,,,,,
True,fullscreen,1736683.0,0.0-4.0,,,2802,,,,,,,,,,,,,,,,,,,
True,fullscreen,3640.0,0.0-0.0,,,2739,,,,,,,,,,,,,,,,,,,
True,fullscreen,1438304.0,0.0-4.0,,,2739,,,,,,,,,,,,,,,,,,,
True,fullscreen,5164.0,0.0-0.0,,,2676,,,,,,,,,,,,,,,,,,,
True,fullscreen,897611.0,0.0-4.0,,,2676,,,,,,,,,,,,,,,,,,,
True,fullscreen,3901.0,0.0-0.0,,,2677,,,,,,,,,,,,,,,,,,,
True,fullscreen,3930514.0,0.0-4.0,,,2677,,,,,,,,,,,,,,,,,,,
True,fullscreen,4182.0,0.0-0.0,,,2678,,,,,,,,,,,,,,,,,,,
True,fullscreen,1116897.0,0.0-4.0,,,2678,,,,,,,,,,,,,,,,,,,
True,fullscreen,1988.0,0.0-0.0,,,2582,,,,,,,,,,,,,,,,,,,
True,fullscreen,2411057.0,0.0-4.0,,,2582,,,,,,,,,,,,,,,,,,,
True,fullscreen,3490.0,0.0-0.0,,,2583,,,,,,,,,,,,,,,,,,,
True,fullscreen,2510221.0,0.0-4.0,,,2583,,,,,,,,,,,,,,,,,,,
True,fullscreen,7782.0,0.0-0.0,,,2510,,,,,,,,,,,,,,,,,,,
True,fullscreen,1365243.0,0.0-4.0,,,2510,,,,,,,,,,,,,,,,,,,
True,fullscreen,3493.0,0.0-0.0,,,2498,,,,,,,,,,,,,,,,,,,
True,fullscreen,3255109.0,0.0-4.0,,,2498,,,,,,,,,,,,,,,,,,,
True,fullscreen,3235.0,0.0-0.0,,,2418,,,,,,,,,,,,,,,,,,,
True,fullscreen,964945.0,0.0-4.0,,,2418,,,,,,,,,,,,,,,,,,,
True,fullscreen,5611.0,0.0-0.0,,,2407,,,,,,,,,,,,,,,,,,,
True,fullscreen,2592294.0,0.0-4.0,,,2407,,,,,,,,,,,,,,,,,,,
True,fullscreen,106745.0,0.0-0.0,,,2408,,,,,,,,,,,,,,,,,,,
True,fullscreen,3893426.0,0.0-4.0,,,2408,,,,,,,,,,,,,,,,,,,
True,fullscreen,6389.0,0.0-0.0,,,2679,,,,,,,,,,,,,,,,,,,
True,fullscreen,1307400.0,0.0-4.0,,,2679,,,,,,,,,,,,,,,,,,,
True,fullscreen,4949.0,0.0-0.0,,,2803,,,,,,,,,,,,,,,,,,,
True,fullscreen,10812.0,0.0-0.0,,,2680,,,,,,,,,,,,,,,,,,,
True,fullscreen,9703.0,0.0-0.0,,,2681,,,,,,,,,,,,,,,,,,,
True,fullscreen,9249.0,0.0-0.0,,,2682,,,,,,,,,,,,,,,,,,,
True,fullscreen,1484418.0,0.0-4.0,,,2682,,,,,,,,,,,,,,,,,,,
True,fullscreen,7184.0,0.0-0.0,,,2443,,,,,,,,,,,,,,,,,,,
True,fullscreen,9384.0,0.0-0.0,,,2805,,,,,,,,,,,,,,,,,,,
True,fullscreen,5904.0,0.0-0.0,,,2742,,,,,,,,,,,,,,,,,,,
True,fullscreen,6123.0,0.0-0.0,,,2683,,,,,,,,,,,,,,,,,,,
True,fullscreen,6603.0,0.0-0.0,,,2685,,,,,,,,,,,,,,,,,,,
True,fullscreen,7518.0,0.0-0.0,,,2593,,,,,,,,,,,,,,,,,,,
True,fullscreen,1998924.0,0.0-4.0,,,2593,,,,,,,,,,,,,,,,,,,
True,fullscreen,2924.0,0.0-0.0,,,2594,,,,,,,,,,,,,,,,,,,
True,fullscreen,3123.0,0.0-0.0,,,2686,,,,,,,,,,,,,,,,,,,
True,fullscreen,1226609.0,0.0-4.0,,,2686,,,,,,,,,,,,,,,,,,,
