success,trial_type,time_elapsed,internal_node_id,view_history,rt,pid,responses,correct,revealed_states,num_clicks_accrued,state_rewards,trial_id,block,trial_index,score,simulation_mode,rewards,path,actions,action_times,queries,displayed_time,trial_time,stimulus,button_pressed
,html-button-response,1828537.0,0.0-5.0,,748050,2747,,,,,,,,,,,,,,,,,,The secret code is <strong>WALRUS</strong>. Please press the 'Finish HIT' button once you've copied it down to paste in the original window.,0
,html-button-response,2429095.0,0.0-5.0,,16583,2816,,,,,,,,,,,,,,,,,,The secret code is <strong>HEDGEHOG</strong>. Please press the 'Finish HIT' button once you've copied it down to paste in the original window.,0
,html-button-response,1285377.0,0.0-5.0,,34273,2755,,,,,,,,,,,,,,,,,,The secret code is <strong>HEDGEHOG</strong>. Please press the 'Finish HIT' button once you've copied it down to paste in the original window.,0
,html-button-response,1320129.0,0.0-5.0,,4400,2716,,,,,,,,,,,,,,,,,,The secret code is <strong>HEDGEHOG</strong>. Please press the 'Finish HIT' button once you've copied it down to paste in the original window.,0
,html-button-response,2069301.0,0.0-5.0,,1126218,2717,,,,,,,,,,,,,,,,,,The secret code is <strong>HEDGEHOG</strong>. Please press the 'Finish HIT' button once you've copied it down to paste in the original window.,0
,html-button-response,1989566.0,0.0-5.0,,17082,2627,,,,,,,,,,,,,,,,,,The secret code is <strong>HEDGEHOG</strong>. Please press the 'Finish HIT' button once you've copied it down to paste in the original window.,0
,html-button-response,1462791.0,0.0-5.0,,10932,2628,,,,,,,,,,,,,,,,,,The secret code is <strong>HEDGEHOG</strong>. Please press the 'Finish HIT' button once you've copied it down to paste in the original window.,0
,html-button-response,1258688.0,0.0-5.0,,8806,2629,,,,,,,,,,,,,,,,,,The secret code is <strong>HEDGEHOG</strong>. Please press the 'Finish HIT' button once you've copied it down to paste in the original window.,0
,html-button-response,1427307.0,0.0-5.0,,4740,2601,,,,,,,,,,,,,,,,,,The secret code is <strong>HEDGEHOG</strong>. Please press the 'Finish HIT' button once you've copied it down to paste in the original window.,0
,html-button-response,1050725.0,0.0-5.0,,4226,2537,,,,,,,,,,,,,,,,,,The secret code is <strong>HEDGEHOG</strong>. Please press the 'Finish HIT' button once you've copied it down to paste in the original window.,0
,html-button-response,1536842.0,0.0-5.0,,12757,2538,,,,,,,,,,,,,,,,,,The secret code is <strong>HEDGEHOG</strong>. Please press the 'Finish HIT' button once you've copied it down to paste in the original window.,0
,html-button-response,1436813.0,0.0-5.0,,7182,2505,,,,,,,,,,,,,,,,,,The secret code is <strong>HEDGEHOG</strong>. Please press the 'Finish HIT' button once you've copied it down to paste in the original window.,0
,html-button-response,1438032.0,0.0-5.0,,33850,2422,,,,,,,,,,,,,,,,,,The secret code is <strong>HEDGEHOG</strong>. Please press the 'Finish HIT' button once you've copied it down to paste in the original window.,0
,html-button-response,1083933.0,0.0-5.0,,10194,2415,,,,,,,,,,,,,,,,,,The secret code is <strong>HEDGEHOG</strong>. Please press the 'Finish HIT' button once you've copied it down to paste in the original window.,0
,html-button-response,7899308.0,0.0-5.0,,6790930,2394,,,,,,,,,,,,,,,,,,The secret code is <strong>HEDGEHOG</strong>. Please press the 'Finish HIT' button once you've copied it down to paste in the original window.,0
,html-button-response,2010861.0,0.0-5.0,,26707,2756,,,,,,,,,,,,,,,,,,The secret code is <strong>BIGHORN</strong>. Please press the 'Finish HIT' button once you've copied it down to paste in the original window.,0
,html-button-response,907040.0,0.0-5.0,,6099.0,2757,,,,,,,,,,,,,,,,,,The secret code is <strong>BIGHORN</strong>. Please press the 'Finish HIT' button once you've copied it down to paste in the original window.,0
,html-button-response,1367906.0,0.0-5.0,,32612,2758,,,,,,,,,,,,,,,,,,The secret code is <strong>BIGHORN</strong>. Please press the 'Finish HIT' button once you've copied it down to paste in the original window.,0
,html-button-response,1864159.0,0.0-5.0,,21592,2759,,,,,,,,,,,,,,,,,,The secret code is <strong>BIGHORN</strong>. Please press the 'Finish HIT' button once you've copied it down to paste in the original window.,0
,html-button-response,5215198.0,0.0-5.0,,1139240,2630,,,,,,,,,,,,,,,,,,The secret code is <strong>BIGHORN</strong>. Please press the 'Finish HIT' button once you've copied it down to paste in the original window.,0
,html-button-response,1712343.0,0.0-5.0,,7665,2631,,,,,,,,,,,,,,,,,,The secret code is <strong>BIGHORN</strong>. Please press the 'Finish HIT' button once you've copied it down to paste in the original window.,0
,html-button-response,1703396.0,0.0-5.0,,54291,2597,,,,,,,,,,,,,,,,,,The secret code is <strong>BIGHORN</strong>. Please press the 'Finish HIT' button once you've copied it down to paste in the original window.,0
,html-button-response,2062915.0,0.0-5.0,,14495,2584,,,,,,,,,,,,,,,,,,The secret code is <strong>BIGHORN</strong>. Please press the 'Finish HIT' button once you've copied it down to paste in the original window.,0
,html-button-response,1665105.0,0.0-5.0,,14404,2514,,,,,,,,,,,,,,,,,,The secret code is <strong>BIGHORN</strong>. Please press the 'Finish HIT' button once you've copied it down to paste in the original window.,0
,html-button-response,1123112.0,0.0-5.0,,15586,2511,,,,,,,,,,,,,,,,,,The secret code is <strong>BIGHORN</strong>. Please press the 'Finish HIT' button once you've copied it down to paste in the original window.,0
,html-button-response,3517308.0,0.0-5.0,,16520,2506,,,,,,,,,,,,,,,,,,The secret code is <strong>BIGHORN</strong>. Please press the 'Finish HIT' button once you've copied it down to paste in the original window.,0
,html-button-response,1099083.0,0.0-5.0,,3946,2467,,,,,,,,,,,,,,,,,,The secret code is <strong>BIGHORN</strong>. Please press the 'Finish HIT' button once you've copied it down to paste in the original window.,0
,html-button-response,2764626.0,0.0-5.0,,55186,1038,,,,,,,,,,,,,,,,,,The secret code is <strong>BIGHORN</strong>. Please press the 'Finish HIT' button once you've copied it down to paste in the original window.,0
,html-button-response,4277593.0,0.0-5.0,,5010,2395,,,,,,,,,,,,,,,,,,The secret code is <strong>BIGHORN</strong>. Please press the 'Finish HIT' button once you've copied it down to paste in the original window.,0
,html-button-response,1440572.0,0.0-5.0,,21481,2817,,,,,,,,,,,,,,,,,,The secret code is <strong>CHINCHILLA</strong>. Please press the 'Finish HIT' button once you've copied it down to paste in the original window.,0
,html-button-response,1539696.0,0.0-5.0,,41984,2760,,,,,,,,,,,,,,,,,,The secret code is <strong>CHINCHILLA</strong>. Please press the 'Finish HIT' button once you've copied it down to paste in the original window.,0
,html-button-response,1641648.0,0.0-5.0,,9216,244,,,,,,,,,,,,,,,,,,The secret code is <strong>CHINCHILLA</strong>. Please press the 'Finish HIT' button once you've copied it down to paste in the original window.,0
,html-button-response,1069003.0,0.0-5.0,,4479,2718,,,,,,,,,,,,,,,,,,The secret code is <strong>CHINCHILLA</strong>. Please press the 'Finish HIT' button once you've copied it down to paste in the original window.,0
,html-button-response,921011.0,0.0-5.0,,4075,2632,,,,,,,,,,,,,,,,,,The secret code is <strong>CHINCHILLA</strong>. Please press the 'Finish HIT' button once you've copied it down to paste in the original window.,0
,html-button-response,1909678.0,0.0-5.0,,4934,2633,,,,,,,,,,,,,,,,,,The secret code is <strong>CHINCHILLA</strong>. Please press the 'Finish HIT' button once you've copied it down to paste in the original window.,0
,html-button-response,3088684.0,0.0-5.0,,8284,2634,,,,,,,,,,,,,,,,,,The secret code is <strong>CHINCHILLA</strong>. Please press the 'Finish HIT' button once you've copied it down to paste in the original window.,0
,html-button-response,1147559.0,0.0-5.0,,3487,2539,,,,,,,,,,,,,,,,,,The secret code is <strong>CHINCHILLA</strong>. Please press the 'Finish HIT' button once you've copied it down to paste in the original window.,0
,html-button-response,1256676.0,0.0-5.0,,16240,2540,,,,,,,,,,,,,,,,,,The secret code is <strong>CHINCHILLA</strong>. Please press the 'Finish HIT' button once you've copied it down to paste in the original window.,0
,html-button-response,1450109.0,0.0-5.0,,5627,2515,,,,,,,,,,,,,,,,,,The secret code is <strong>CHINCHILLA</strong>. Please press the 'Finish HIT' button once you've copied it down to paste in the original window.,0
,html-button-response,1055738.0,0.0-5.0,,7266,2503,,,,,,,,,,,,,,,,,,The secret code is <strong>CHINCHILLA</strong>. Please press the 'Finish HIT' button once you've copied it down to paste in the original window.,0
,html-button-response,1456229.0,0.0-5.0,,23900,2468,,,,,,,,,,,,,,,,,,The secret code is <strong>CHINCHILLA</strong>. Please press the 'Finish HIT' button once you've copied it down to paste in the original window.,0
,html-button-response,1436368.0,0.0-5.0,,5296,2396,,,,,,,,,,,,,,,,,,The secret code is <strong>CHINCHILLA</strong>. Please press the 'Finish HIT' button once you've copied it down to paste in the original window.,0
,html-button-response,1085176.0,0.0-5.0,,14375,1715,,,,,,,,,,,,,,,,,,The secret code is <strong>CHINCHILLA</strong>. Please press the 'Finish HIT' button once you've copied it down to paste in the original window.,0
,html-button-response,1336071.0,0.0-5.0,,2089,2818,,,,,,,,,,,,,,,,,,The secret code is <strong>PORCUPINE</strong>. Please press the 'Finish HIT' button once you've copied it down to paste in the original window.,0
,html-button-response,2095106.0,0.0-5.0,,9842,2761,,,,,,,,,,,,,,,,,,The secret code is <strong>PORCUPINE</strong>. Please press the 'Finish HIT' button once you've copied it down to paste in the original window.,0
,html-button-response,868559.0,0.0-5.0,,3616,2762,,,,,,,,,,,,,,,,,,The secret code is <strong>PORCUPINE</strong>. Please press the 'Finish HIT' button once you've copied it down to paste in the original window.,0
,html-button-response,1694976.0,0.0-5.0,,8166,2719,,,,,,,,,,,,,,,,,,The secret code is <strong>PORCUPINE</strong>. Please press the 'Finish HIT' button once you've copied it down to paste in the original window.,0
,html-button-response,1355503.0,0.0-5.0,,17089,2635,,,,,,,,,,,,,,,,,,The secret code is <strong>PORCUPINE</strong>. Please press the 'Finish HIT' button once you've copied it down to paste in the original window.,0
,html-button-response,990925.0,0.0-5.0,,6496,2636,,,,,,,,,,,,,,,,,,The secret code is <strong>PORCUPINE</strong>. Please press the 'Finish HIT' button once you've copied it down to paste in the original window.,0
,html-button-response,2351742.0,0.0-5.0,,20333,2637,,,,,,,,,,,,,,,,,,The secret code is <strong>PORCUPINE</strong>. Please press the 'Finish HIT' button once you've copied it down to paste in the original window.,0
,html-button-response,1338908.0,0.0-5.0,,8585,2586,,,,,,,,,,,,,,,,,,The secret code is <strong>PORCUPINE</strong>. Please press the 'Finish HIT' button once you've copied it down to paste in the original window.,0
,html-button-response,1393307.0,0.0-5.0,,5367,2541,,,,,,,,,,,,,,,,,,The secret code is <strong>PORCUPINE</strong>. Please press the 'Finish HIT' button once you've copied it down to paste in the original window.,0
,html-button-response,1504627.0,0.0-5.0,,14542,2507,,,,,,,,,,,,,,,,,,The secret code is <strong>PORCUPINE</strong>. Please press the 'Finish HIT' button once you've copied it down to paste in the original window.,0
,html-button-response,3009853.0,0.0-5.0,,10683,2490,,,,,,,,,,,,,,,,,,The secret code is <strong>PORCUPINE</strong>. Please press the 'Finish HIT' button once you've copied it down to paste in the original window.,0
,html-button-response,815251.0,0.0-5.0,,5460,2466,,,,,,,,,,,,,,,,,,The secret code is <strong>PORCUPINE</strong>. Please press the 'Finish HIT' button once you've copied it down to paste in the original window.,0
,html-button-response,1827473.0,0.0-5.0,,24413,2397,,,,,,,,,,,,,,,,,,The secret code is <strong>PORCUPINE</strong>. Please press the 'Finish HIT' button once you've copied it down to paste in the original window.,0
,html-button-response,2065096.0,0.0-5.0,,85400,2384,,,,,,,,,,,,,,,,,,The secret code is <strong>PORCUPINE</strong>. Please press the 'Finish HIT' button once you've copied it down to paste in the original window.,0
,html-button-response,3373203.0,0.0-5.0,,9555,2763,,,,,,,,,,,,,,,,,,The secret code is <strong>GUANACO</strong>. Please press the 'Finish HIT' button once you've copied it down to paste in the original window.,0
,html-button-response,2051899.0,0.0-5.0,,4840,2764,,,,,,,,,,,,,,,,,,The secret code is <strong>GUANACO</strong>. Please press the 'Finish HIT' button once you've copied it down to paste in the original window.,0
,html-button-response,1192139.0,0.0-5.0,,10098,2720,,,,,,,,,,,,,,,,,,The secret code is <strong>GUANACO</strong>. Please press the 'Finish HIT' button once you've copied it down to paste in the original window.,0
,html-button-response,3213794.0,0.0-5.0,,20283,2638,,,,,,,,,,,,,,,,,,The secret code is <strong>GUANACO</strong>. Please press the 'Finish HIT' button once you've copied it down to paste in the original window.,0
,html-button-response,1745106.0,0.0-5.0,,8587,2639,,,,,,,,,,,,,,,,,,The secret code is <strong>GUANACO</strong>. Please press the 'Finish HIT' button once you've copied it down to paste in the original window.,0
,html-button-response,342232.0,0.0-5.0,,6561.0,2640,,,,,,,,,,,,,,,,,,The secret code is <strong>GUANACO</strong>. Please press the 'Finish HIT' button once you've copied it down to paste in the original window.,0
,html-button-response,2333840.0,0.0-5.0,,44321,2542,,,,,,,,,,,,,,,,,,The secret code is <strong>GUANACO</strong>. Please press the 'Finish HIT' button once you've copied it down to paste in the original window.,0
,html-button-response,2373072.0,0.0-5.0,,25303,2543,,,,,,,,,,,,,,,,,,The secret code is <strong>GUANACO</strong>. Please press the 'Finish HIT' button once you've copied it down to paste in the original window.,0
,html-button-response,2470344.0,0.0-5.0,,36844,2491,,,,,,,,,,,,,,,,,,The secret code is <strong>GUANACO</strong>. Please press the 'Finish HIT' button once you've copied it down to paste in the original window.,0
,html-button-response,1815377.0,0.0-5.0,,7215,2480,,,,,,,,,,,,,,,,,,The secret code is <strong>GUANACO</strong>. Please press the 'Finish HIT' button once you've copied it down to paste in the original window.,0
,html-button-response,2879610.0,0.0-5.0,,3421,2469,,,,,,,,,,,,,,,,,,The secret code is <strong>GUANACO</strong>. Please press the 'Finish HIT' button once you've copied it down to paste in the original window.,0
,html-button-response,1101580.0,0.0-5.0,,6729,2445,,,,,,,,,,,,,,,,,,The secret code is <strong>GUANACO</strong>. Please press the 'Finish HIT' button once you've copied it down to paste in the original window.,0
,html-button-response,1501842.0,0.0-5.0,,19011,978,,,,,,,,,,,,,,,,,,The secret code is <strong>GUANACO</strong>. Please press the 'Finish HIT' button once you've copied it down to paste in the original window.,0
,html-button-response,1968392.0,0.0-5.0,,3791,2819,,,,,,,,,,,,,,,,,,The secret code is <strong>WALRUS</strong>. Please press the 'Finish HIT' button once you've copied it down to paste in the original window.,0
,html-button-response,938953.0,0.0-5.0,,19619,2765,,,,,,,,,,,,,,,,,,The secret code is <strong>WALRUS</strong>. Please press the 'Finish HIT' button once you've copied it down to paste in the original window.,0
,html-button-response,1917328.0,0.0-5.0,,23443,2766,,,,,,,,,,,,,,,,,,The secret code is <strong>WALRUS</strong>. Please press the 'Finish HIT' button once you've copied it down to paste in the original window.,0
,html-button-response,1777231.0,0.0-5.0,,6704,2721,,,,,,,,,,,,,,,,,,The secret code is <strong>WALRUS</strong>. Please press the 'Finish HIT' button once you've copied it down to paste in the original window.,0
,html-button-response,1198052.0,0.0-5.0,,33556,2697,,,,,,,,,,,,,,,,,,The secret code is <strong>WALRUS</strong>. Please press the 'Finish HIT' button once you've copied it down to paste in the original window.,0
,html-button-response,1558354.0,0.0-5.0,,21588,2641,,,,,,,,,,,,,,,,,,The secret code is <strong>WALRUS</strong>. Please press the 'Finish HIT' button once you've copied it down to paste in the original window.,0
,html-button-response,1555130.0,0.0-5.0,,3591,2642,,,,,,,,,,,,,,,,,,The secret code is <strong>WALRUS</strong>. Please press the 'Finish HIT' button once you've copied it down to paste in the original window.,0
,html-button-response,1800467.0,0.0-5.0,,16997,2602,,,,,,,,,,,,,,,,,,The secret code is <strong>WALRUS</strong>. Please press the 'Finish HIT' button once you've copied it down to paste in the original window.,0
,html-button-response,1469543.0,0.0-5.0,,5893,2544,,,,,,,,,,,,,,,,,,The secret code is <strong>WALRUS</strong>. Please press the 'Finish HIT' button once you've copied it down to paste in the original window.,0
,html-button-response,1052409.0,0.0-5.0,,3819,2516,,,,,,,,,,,,,,,,,,The secret code is <strong>WALRUS</strong>. Please press the 'Finish HIT' button once you've copied it down to paste in the original window.,0
,html-button-response,1187442.0,0.0-5.0,,3495,2481,,,,,,,,,,,,,,,,,,The secret code is <strong>WALRUS</strong>. Please press the 'Finish HIT' button once you've copied it down to paste in the original window.,0
,html-button-response,2125764.0,0.0-5.0,,15955,1146,,,,,,,,,,,,,,,,,,The secret code is <strong>WALRUS</strong>. Please press the 'Finish HIT' button once you've copied it down to paste in the original window.,0
,html-button-response,2385413.0,0.0-5.0,,7810,2470,,,,,,,,,,,,,,,,,,The secret code is <strong>WALRUS</strong>. Please press the 'Finish HIT' button once you've copied it down to paste in the original window.,0
,html-button-response,1952960.0,0.0-5.0,,63185,2398,,,,,,,,,,,,,,,,,,The secret code is <strong>WALRUS</strong>. Please press the 'Finish HIT' button once you've copied it down to paste in the original window.,0
,html-button-response,3587788.0,0.0-5.0,,8398,2820,,,,,,,,,,,,,,,,,,The secret code is <strong>DROMEDARY</strong>. Please press the 'Finish HIT' button once you've copied it down to paste in the original window.,0
,html-button-response,4184997.0,0.0-5.0,,5603,2767,,,,,,,,,,,,,,,,,,The secret code is <strong>DROMEDARY</strong>. Please press the 'Finish HIT' button once you've copied it down to paste in the original window.,0
,html-button-response,3874297.0,0.0-5.0,,13057,2768,,,,,,,,,,,,,,,,,,The secret code is <strong>DROMEDARY</strong>. Please press the 'Finish HIT' button once you've copied it down to paste in the original window.,0
,html-button-response,1492394.0,0.0-5.0,,21393,2722,,,,,,,,,,,,,,,,,,The secret code is <strong>DROMEDARY</strong>. Please press the 'Finish HIT' button once you've copied it down to paste in the original window.,0
,html-button-response,1253449.0,0.0-5.0,,14815,2705,,,,,,,,,,,,,,,,,,The secret code is <strong>DROMEDARY</strong>. Please press the 'Finish HIT' button once you've copied it down to paste in the original window.,0
,html-button-response,2612470.0,0.0-5.0,,5157,2643,,,,,,,,,,,,,,,,,,The secret code is <strong>DROMEDARY</strong>. Please press the 'Finish HIT' button once you've copied it down to paste in the original window.,0
,html-button-response,407084.0,0.0-5.0,,33349.0,2644,,,,,,,,,,,,,,,,,,The secret code is <strong>DROMEDARY</strong>. Please press the 'Finish HIT' button once you've copied it down to paste in the original window.,0
,html-button-response,1724435.0,0.0-5.0,,40817,2587,,,,,,,,,,,,,,,,,,The secret code is <strong>DROMEDARY</strong>. Please press the 'Finish HIT' button once you've copied it down to paste in the original window.,0
,html-button-response,1725053.0,0.0-5.0,,11215,2545,,,,,,,,,,,,,,,,,,The secret code is <strong>DROMEDARY</strong>. Please press the 'Finish HIT' button once you've copied it down to paste in the original window.,0
,html-button-response,420052017.0,0.0-5.0,,417508460,2588,,,,,,,,,,,,,,,,,,The secret code is <strong>DROMEDARY</strong>. Please press the 'Finish HIT' button once you've copied it down to paste in the original window.,0
,html-button-response,2862413.0,0.0-5.0,,27823,2546,,,,,,,,,,,,,,,,,,The secret code is <strong>DROMEDARY</strong>. Please press the 'Finish HIT' button once you've copied it down to paste in the original window.,0
,html-button-response,2937370.0,0.0-5.0,,38179,2460,,,,,,,,,,,,,,,,,,The secret code is <strong>DROMEDARY</strong>. Please press the 'Finish HIT' button once you've copied it down to paste in the original window.,0
,html-button-response,2512637.0,0.0-5.0,,3915,2459,,,,,,,,,,,,,,,,,,The secret code is <strong>DROMEDARY</strong>. Please press the 'Finish HIT' button once you've copied it down to paste in the original window.,0
,html-button-response,2554290.0,0.0-5.0,,22321,2447,,,,,,,,,,,,,,,,,,The secret code is <strong>DROMEDARY</strong>. Please press the 'Finish HIT' button once you've copied it down to paste in the original window.,0
,html-button-response,2577775.0,0.0-5.0,,21628,2431,,,,,,,,,,,,,,,,,,The secret code is <strong>DROMEDARY</strong>. Please press the 'Finish HIT' button once you've copied it down to paste in the original window.,0
,html-button-response,1703667.0,0.0-5.0,,6262,2821,,,,,,,,,,,,,,,,,,The secret code is <strong>AOUDAD</strong>. Please press the 'Finish HIT' button once you've copied it down to paste in the original window.,0
,html-button-response,3980271.0,0.0-5.0,,22637,823,,,,,,,,,,,,,,,,,,The secret code is <strong>AOUDAD</strong>. Please press the 'Finish HIT' button once you've copied it down to paste in the original window.,0
,html-button-response,1916023.0,0.0-5.0,,5709,2740,,,,,,,,,,,,,,,,,,The secret code is <strong>AOUDAD</strong>. Please press the 'Finish HIT' button once you've copied it down to paste in the original window.,0
,html-button-response,4342185.0,0.0-5.0,,3793,2723,,,,,,,,,,,,,,,,,,The secret code is <strong>AOUDAD</strong>. Please press the 'Finish HIT' button once you've copied it down to paste in the original window.,0
,html-button-response,2327427.0,0.0-5.0,,22183,2706,,,,,,,,,,,,,,,,,,The secret code is <strong>AOUDAD</strong>. Please press the 'Finish HIT' button once you've copied it down to paste in the original window.,0
,html-button-response,5886261.0,0.0-5.0,,539301,2645,,,,,,,,,,,,,,,,,,The secret code is <strong>AOUDAD</strong>. Please press the 'Finish HIT' button once you've copied it down to paste in the original window.,0
,html-button-response,1554353.0,0.0-5.0,,20642,2598,,,,,,,,,,,,,,,,,,The secret code is <strong>AOUDAD</strong>. Please press the 'Finish HIT' button once you've copied it down to paste in the original window.,0
,html-button-response,3123173.0,0.0-5.0,,7409,2589,,,,,,,,,,,,,,,,,,The secret code is <strong>AOUDAD</strong>. Please press the 'Finish HIT' button once you've copied it down to paste in the original window.,0
,html-button-response,1173421.0,0.0-5.0,,7349,2547,,,,,,,,,,,,,,,,,,The secret code is <strong>AOUDAD</strong>. Please press the 'Finish HIT' button once you've copied it down to paste in the original window.,0
,html-button-response,1390870.0,0.0-5.0,,20770,2548,,,,,,,,,,,,,,,,,,The secret code is <strong>AOUDAD</strong>. Please press the 'Finish HIT' button once you've copied it down to paste in the original window.,0
,html-button-response,993320.0,0.0-5.0,,2810,2461,,,,,,,,,,,,,,,,,,The secret code is <strong>AOUDAD</strong>. Please press the 'Finish HIT' button once you've copied it down to paste in the original window.,0
,html-button-response,2700559.0,0.0-5.0,,22517,2448,,,,,,,,,,,,,,,,,,The secret code is <strong>AOUDAD</strong>. Please press the 'Finish HIT' button once you've copied it down to paste in the original window.,0
,html-button-response,4520356.0,0.0-5.0,,6610,2423,,,,,,,,,,,,,,,,,,The secret code is <strong>AOUDAD</strong>. Please press the 'Finish HIT' button once you've copied it down to paste in the original window.,0
,html-button-response,1058691.0,0.0-5.0,,10384,2385,,,,,,,,,,,,,,,,,,The secret code is <strong>AOUDAD</strong>. Please press the 'Finish HIT' button once you've copied it down to paste in the original window.,0
,html-button-response,1378632.0,0.0-5.0,,9167,2822,,,,,,,,,,,,,,,,,,The secret code is <strong>WEASEL</strong>. Please press the 'Finish HIT' button once you've copied it down to paste in the original window.,0
,html-button-response,2063331.0,0.0-5.0,,22943,1732,,,,,,,,,,,,,,,,,,The secret code is <strong>WEASEL</strong>. Please press the 'Finish HIT' button once you've copied it down to paste in the original window.,0
,html-button-response,3099732.0,0.0-5.0,,8180,1713,,,,,,,,,,,,,,,,,,The secret code is <strong>WEASEL</strong>. Please press the 'Finish HIT' button once you've copied it down to paste in the original window.,0
,html-button-response,2153758.0,0.0-5.0,,3565,2707,,,,,,,,,,,,,,,,,,The secret code is <strong>WEASEL</strong>. Please press the 'Finish HIT' button once you've copied it down to paste in the original window.,0
,html-button-response,837061.0,0.0-5.0,,4704,2646,,,,,,,,,,,,,,,,,,The secret code is <strong>WEASEL</strong>. Please press the 'Finish HIT' button once you've copied it down to paste in the original window.,0
,html-button-response,1599542.0,0.0-5.0,,6222,2647,,,,,,,,,,,,,,,,,,The secret code is <strong>WEASEL</strong>. Please press the 'Finish HIT' button once you've copied it down to paste in the original window.,0
,html-button-response,2813558.0,0.0-5.0,,7640,2604,,,,,,,,,,,,,,,,,,The secret code is <strong>WEASEL</strong>. Please press the 'Finish HIT' button once you've copied it down to paste in the original window.,0
,html-button-response,7100956.0,0.0-5.0,,6213925,2590,,,,,,,,,,,,,,,,,,The secret code is <strong>WEASEL</strong>. Please press the 'Finish HIT' button once you've copied it down to paste in the original window.,0
,html-button-response,1447870.0,0.0-5.0,,4208,2549,,,,,,,,,,,,,,,,,,The secret code is <strong>WEASEL</strong>. Please press the 'Finish HIT' button once you've copied it down to paste in the original window.,0
,html-button-response,1541260.0,0.0-5.0,,19423,2550,,,,,,,,,,,,,,,,,,The secret code is <strong>WEASEL</strong>. Please press the 'Finish HIT' button once you've copied it down to paste in the original window.,0
,html-button-response,1374683.0,0.0-5.0,,4890,2492,,,,,,,,,,,,,,,,,,The secret code is <strong>WEASEL</strong>. Please press the 'Finish HIT' button once you've copied it down to paste in the original window.,0
,html-button-response,1996492.0,0.0-5.0,,6932,2476,,,,,,,,,,,,,,,,,,The secret code is <strong>WEASEL</strong>. Please press the 'Finish HIT' button once you've copied it down to paste in the original window.,0
,html-button-response,2496084.0,0.0-5.0,,14339,2432,,,,,,,,,,,,,,,,,,The secret code is <strong>WEASEL</strong>. Please press the 'Finish HIT' button once you've copied it down to paste in the original window.,0
,html-button-response,984942.0,0.0-5.0,,4593,2386,,,,,,,,,,,,,,,,,,The secret code is <strong>WEASEL</strong>. Please press the 'Finish HIT' button once you've copied it down to paste in the original window.,0
,html-button-response,587960.0,0.0-5.0,,4002.0,2769,,,,,,,,,,,,,,,,,,The secret code is <strong>ROOSTER</strong>. Please press the 'Finish HIT' button once you've copied it down to paste in the original window.,0
,html-button-response,1496596.0,0.0-5.0,,10850,2770,,,,,,,,,,,,,,,,,,The secret code is <strong>ROOSTER</strong>. Please press the 'Finish HIT' button once you've copied it down to paste in the original window.,0
,html-button-response,3087058.0,0.0-5.0,,10931,2741,,,,,,,,,,,,,,,,,,The secret code is <strong>ROOSTER</strong>. Please press the 'Finish HIT' button once you've copied it down to paste in the original window.,0
,html-button-response,1698158.0,0.0-5.0,,14711,2724,,,,,,,,,,,,,,,,,,The secret code is <strong>ROOSTER</strong>. Please press the 'Finish HIT' button once you've copied it down to paste in the original window.,0
,html-button-response,1831960.0,0.0-5.0,,5442,2648,,,,,,,,,,,,,,,,,,The secret code is <strong>ROOSTER</strong>. Please press the 'Finish HIT' button once you've copied it down to paste in the original window.,0
,html-button-response,4803844.0,0.0-5.0,,10855,2649,,,,,,,,,,,,,,,,,,The secret code is <strong>ROOSTER</strong>. Please press the 'Finish HIT' button once you've copied it down to paste in the original window.,0
,html-button-response,2070485.0,0.0-5.0,,5495,2605,,,,,,,,,,,,,,,,,,The secret code is <strong>ROOSTER</strong>. Please press the 'Finish HIT' button once you've copied it down to paste in the original window.,0
,html-button-response,3620995.0,0.0-5.0,,7439,2591,,,,,,,,,,,,,,,,,,The secret code is <strong>ROOSTER</strong>. Please press the 'Finish HIT' button once you've copied it down to paste in the original window.,0
,html-button-response,3539029.0,0.0-5.0,,14743,2551,,,,,,,,,,,,,,,,,,The secret code is <strong>ROOSTER</strong>. Please press the 'Finish HIT' button once you've copied it down to paste in the original window.,0
,html-button-response,1855154.0,0.0-5.0,,7509,2517,,,,,,,,,,,,,,,,,,The secret code is <strong>ROOSTER</strong>. Please press the 'Finish HIT' button once you've copied it down to paste in the original window.,0
,html-button-response,4018694.0,0.0-5.0,,7729,2483,,,,,,,,,,,,,,,,,,The secret code is <strong>ROOSTER</strong>. Please press the 'Finish HIT' button once you've copied it down to paste in the original window.,0
,html-button-response,1466336.0,0.0-5.0,,7475,2449,,,,,,,,,,,,,,,,,,The secret code is <strong>ROOSTER</strong>. Please press the 'Finish HIT' button once you've copied it down to paste in the original window.,0
,html-button-response,1089890.0,0.0-5.0,,9887,2424,,,,,,,,,,,,,,,,,,The secret code is <strong>ROOSTER</strong>. Please press the 'Finish HIT' button once you've copied it down to paste in the original window.,0
,html-button-response,3696359.0,0.0-5.0,,12711,2399,,,,,,,,,,,,,,,,,,The secret code is <strong>ROOSTER</strong>. Please press the 'Finish HIT' button once you've copied it down to paste in the original window.,0
,html-button-response,1020949.0,0.0-5.0,,6344,2771,,,,,,,,,,,,,,,,,,The secret code is <strong>CIVET</strong>. Please press the 'Finish HIT' button once you've copied it down to paste in the original window.,0
,html-button-response,3564714.0,0.0-5.0,,5184,2772,,,,,,,,,,,,,,,,,,The secret code is <strong>CIVET</strong>. Please press the 'Finish HIT' button once you've copied it down to paste in the original window.,0
,html-button-response,3221444.0,0.0-5.0,,16151,2725,,,,,,,,,,,,,,,,,,The secret code is <strong>CIVET</strong>. Please press the 'Finish HIT' button once you've copied it down to paste in the original window.,0
,html-button-response,1564249.0,0.0-5.0,,10902,2726,,,,,,,,,,,,,,,,,,The secret code is <strong>CIVET</strong>. Please press the 'Finish HIT' button once you've copied it down to paste in the original window.,0
,html-button-response,3918185.0,0.0-5.0,,4986,2695,,,,,,,,,,,,,,,,,,The secret code is <strong>CIVET</strong>. Please press the 'Finish HIT' button once you've copied it down to paste in the original window.,0
,html-button-response,1562870.0,0.0-5.0,,18773,2650,,,,,,,,,,,,,,,,,,The secret code is <strong>CIVET</strong>. Please press the 'Finish HIT' button once you've copied it down to paste in the original window.,0
,html-button-response,876710.0,0.0-5.0,,21655,2651,,,,,,,,,,,,,,,,,,The secret code is <strong>CIVET</strong>. Please press the 'Finish HIT' button once you've copied it down to paste in the original window.,0
,html-button-response,2561931.0,0.0-5.0,,5931,2606,,,,,,,,,,,,,,,,,,The secret code is <strong>CIVET</strong>. Please press the 'Finish HIT' button once you've copied it down to paste in the original window.,0
,html-button-response,1507394.0,0.0-5.0,,2986,2552,,,,,,,,,,,,,,,,,,The secret code is <strong>CIVET</strong>. Please press the 'Finish HIT' button once you've copied it down to paste in the original window.,0
,html-button-response,779019.0,0.0-5.0,,6803,1759,,,,,,,,,,,,,,,,,,The secret code is <strong>CIVET</strong>. Please press the 'Finish HIT' button once you've copied it down to paste in the original window.,0
,html-button-response,1932660.0,0.0-5.0,,4741,2484,,,,,,,,,,,,,,,,,,The secret code is <strong>CIVET</strong>. Please press the 'Finish HIT' button once you've copied it down to paste in the original window.,0
,html-button-response,1119486.0,0.0-5.0,,9952,2477,,,,,,,,,,,,,,,,,,The secret code is <strong>CIVET</strong>. Please press the 'Finish HIT' button once you've copied it down to paste in the original window.,0
,html-button-response,1327829.0,0.0-5.0,,7786,2420,,,,,,,,,,,,,,,,,,The secret code is <strong>CIVET</strong>. Please press the 'Finish HIT' button once you've copied it down to paste in the original window.,0
,html-button-response,1776559.0,0.0-5.0,,12996,2416,,,,,,,,,,,,,,,,,,The secret code is <strong>CIVET</strong>. Please press the 'Finish HIT' button once you've copied it down to paste in the original window.,0
,html-button-response,5258070.0,0.0-5.0,,3852,2773,,,,,,,,,,,,,,,,,,The secret code is <strong>IGUANA</strong>. Please press the 'Finish HIT' button once you've copied it down to paste in the original window.,0
,html-button-response,2074864.0,0.0-5.0,,15021,2774,,,,,,,,,,,,,,,,,,The secret code is <strong>IGUANA</strong>. Please press the 'Finish HIT' button once you've copied it down to paste in the original window.,0
,html-button-response,986917.0,0.0-5.0,,6590,2775,,,,,,,,,,,,,,,,,,The secret code is <strong>IGUANA</strong>. Please press the 'Finish HIT' button once you've copied it down to paste in the original window.,0
,html-button-response,1442660.0,0.0-5.0,,7239,2727,,,,,,,,,,,,,,,,,,The secret code is <strong>IGUANA</strong>. Please press the 'Finish HIT' button once you've copied it down to paste in the original window.,0
,html-button-response,3082060.0,0.0-5.0,,4660,2652,,,,,,,,,,,,,,,,,,The secret code is <strong>IGUANA</strong>. Please press the 'Finish HIT' button once you've copied it down to paste in the original window.,0
,html-button-response,1529781.0,0.0-5.0,,6966,2653,,,,,,,,,,,,,,,,,,The secret code is <strong>IGUANA</strong>. Please press the 'Finish HIT' button once you've copied it down to paste in the original window.,0
,html-button-response,1313381.0,0.0-5.0,,7045,2607,,,,,,,,,,,,,,,,,,The secret code is <strong>IGUANA</strong>. Please press the 'Finish HIT' button once you've copied it down to paste in the original window.,0
,html-button-response,858212.0,0.0-5.0,,3639,2592,,,,,,,,,,,,,,,,,,The secret code is <strong>IGUANA</strong>. Please press the 'Finish HIT' button once you've copied it down to paste in the original window.,0
,html-button-response,1388541.0,0.0-5.0,,9916,2553,,,,,,,,,,,,,,,,,,The secret code is <strong>IGUANA</strong>. Please press the 'Finish HIT' button once you've copied it down to paste in the original window.,0
,html-button-response,1488100.0,0.0-5.0,,19870,2471,,,,,,,,,,,,,,,,,,The secret code is <strong>IGUANA</strong>. Please press the 'Finish HIT' button once you've copied it down to paste in the original window.,0
,html-button-response,2346388.0,0.0-5.0,,22256,2463,,,,,,,,,,,,,,,,,,The secret code is <strong>IGUANA</strong>. Please press the 'Finish HIT' button once you've copied it down to paste in the original window.,0
,html-button-response,3607829.0,0.0-5.0,,23867,2450,,,,,,,,,,,,,,,,,,The secret code is <strong>IGUANA</strong>. Please press the 'Finish HIT' button once you've copied it down to paste in the original window.,0
,html-button-response,5273281.0,0.0-5.0,,6156,2433,,,,,,,,,,,,,,,,,,The secret code is <strong>IGUANA</strong>. Please press the 'Finish HIT' button once you've copied it down to paste in the original window.,0
,html-button-response,929804.0,0.0-5.0,,3497,2387,,,,,,,,,,,,,,,,,,The secret code is <strong>IGUANA</strong>. Please press the 'Finish HIT' button once you've copied it down to paste in the original window.,0
,html-button-response,1991853.0,0.0-5.0,,7746,2823,,,,,,,,,,,,,,,,,,The secret code is <strong>FRUITBAT</strong>. Please press the 'Finish HIT' button once you've copied it down to paste in the original window.,0
,html-button-response,887816.0,0.0-5.0,,3895,2776,,,,,,,,,,,,,,,,,,The secret code is <strong>FRUITBAT</strong>. Please press the 'Finish HIT' button once you've copied it down to paste in the original window.,0
,html-button-response,2378510.0,0.0-5.0,,32464,2777,,,,,,,,,,,,,,,,,,The secret code is <strong>FRUITBAT</strong>. Please press the 'Finish HIT' button once you've copied it down to paste in the original window.,0
,html-button-response,2224483.0,0.0-5.0,,22685,2728,,,,,,,,,,,,,,,,,,The secret code is <strong>FRUITBAT</strong>. Please press the 'Finish HIT' button once you've copied it down to paste in the original window.,0
,html-button-response,1766330.0,0.0-5.0,,16877,2691,,,,,,,,,,,,,,,,,,The secret code is <strong>FRUITBAT</strong>. Please press the 'Finish HIT' button once you've copied it down to paste in the original window.,0
,html-button-response,1646237.0,0.0-5.0,,4841,2654,,,,,,,,,,,,,,,,,,The secret code is <strong>FRUITBAT</strong>. Please press the 'Finish HIT' button once you've copied it down to paste in the original window.,0
,html-button-response,1554251.0,0.0-5.0,,4937,2655,,,,,,,,,,,,,,,,,,The secret code is <strong>FRUITBAT</strong>. Please press the 'Finish HIT' button once you've copied it down to paste in the original window.,0
,html-button-response,1109014.0,0.0-5.0,,7070,2554,,,,,,,,,,,,,,,,,,The secret code is <strong>FRUITBAT</strong>. Please press the 'Finish HIT' button once you've copied it down to paste in the original window.,0
,html-button-response,1144886.0,0.0-5.0,,9340,2555,,,,,,,,,,,,,,,,,,The secret code is <strong>FRUITBAT</strong>. Please press the 'Finish HIT' button once you've copied it down to paste in the original window.,0
,html-button-response,1008076.0,0.0-5.0,,4617,2518,,,,,,,,,,,,,,,,,,The secret code is <strong>FRUITBAT</strong>. Please press the 'Finish HIT' button once you've copied it down to paste in the original window.,0
,html-button-response,1383064.0,0.0-5.0,,9440,2494,,,,,,,,,,,,,,,,,,The secret code is <strong>FRUITBAT</strong>. Please press the 'Finish HIT' button once you've copied it down to paste in the original window.,0
,html-button-response,1460935.0,0.0-5.0,,17196,2472,,,,,,,,,,,,,,,,,,The secret code is <strong>FRUITBAT</strong>. Please press the 'Finish HIT' button once you've copied it down to paste in the original window.,0
,html-button-response,1030484.0,0.0-5.0,,5570,2417,,,,,,,,,,,,,,,,,,The secret code is <strong>FRUITBAT</strong>. Please press the 'Finish HIT' button once you've copied it down to paste in the original window.,0
,html-button-response,1725066.0,0.0-5.0,,16890,2388,,,,,,,,,,,,,,,,,,The secret code is <strong>FRUITBAT</strong>. Please press the 'Finish HIT' button once you've copied it down to paste in the original window.,0
,html-button-response,3600749.0,0.0-5.0,,11733,2824,,,,,,,,,,,,,,,,,,The secret code is <strong>REINDEER</strong>. Please press the 'Finish HIT' button once you've copied it down to paste in the original window.,0
,html-button-response,2517664.0,0.0-5.0,,7769,2778,,,,,,,,,,,,,,,,,,The secret code is <strong>REINDEER</strong>. Please press the 'Finish HIT' button once you've copied it down to paste in the original window.,0
,html-button-response,1573922.0,0.0-5.0,,8927,2779,,,,,,,,,,,,,,,,,,The secret code is <strong>REINDEER</strong>. Please press the 'Finish HIT' button once you've copied it down to paste in the original window.,0
,html-button-response,1264790.0,0.0-5.0,,21959,2729,,,,,,,,,,,,,,,,,,The secret code is <strong>REINDEER</strong>. Please press the 'Finish HIT' button once you've copied it down to paste in the original window.,0
,html-button-response,1523109.0,0.0-5.0,,9215,2708,,,,,,,,,,,,,,,,,,The secret code is <strong>REINDEER</strong>. Please press the 'Finish HIT' button once you've copied it down to paste in the original window.,0
,html-button-response,3766058.0,0.0-5.0,,6803,2656,,,,,,,,,,,,,,,,,,The secret code is <strong>REINDEER</strong>. Please press the 'Finish HIT' button once you've copied it down to paste in the original window.,0
,html-button-response,2814910.0,0.0-5.0,,21864,2657,,,,,,,,,,,,,,,,,,The secret code is <strong>REINDEER</strong>. Please press the 'Finish HIT' button once you've copied it down to paste in the original window.,0
,html-button-response,2011642.0,0.0-5.0,,18325,2556,,,,,,,,,,,,,,,,,,The secret code is <strong>REINDEER</strong>. Please press the 'Finish HIT' button once you've copied it down to paste in the original window.,0
,html-button-response,2376510.0,0.0-5.0,,17156,2557,,,,,,,,,,,,,,,,,,The secret code is <strong>REINDEER</strong>. Please press the 'Finish HIT' button once you've copied it down to paste in the original window.,0
,html-button-response,2193036.0,0.0-5.0,,5439,2558,,,,,,,,,,,,,,,,,,The secret code is <strong>REINDEER</strong>. Please press the 'Finish HIT' button once you've copied it down to paste in the original window.,0
,html-button-response,1322801.0,0.0-5.0,,3194,2495,,,,,,,,,,,,,,,,,,The secret code is <strong>REINDEER</strong>. Please press the 'Finish HIT' button once you've copied it down to paste in the original window.,0
,html-button-response,918929.0,0.0-5.0,,1690,2434,,,,,,,,,,,,,,,,,,The secret code is <strong>REINDEER</strong>. Please press the 'Finish HIT' button once you've copied it down to paste in the original window.,0
,html-button-response,923174.0,0.0-5.0,,6024,2425,,,,,,,,,,,,,,,,,,The secret code is <strong>REINDEER</strong>. Please press the 'Finish HIT' button once you've copied it down to paste in the original window.,0
,html-button-response,3398435.0,0.0-5.0,,14180,2400,,,,,,,,,,,,,,,,,,The secret code is <strong>REINDEER</strong>. Please press the 'Finish HIT' button once you've copied it down to paste in the original window.,0
,html-button-response,1038397.0,0.0-5.0,,14912,2825,,,,,,,,,,,,,,,,,,The secret code is <strong>BOBCAT</strong>. Please press the 'Finish HIT' button once you've copied it down to paste in the original window.,0
,html-button-response,1369878.0,0.0-5.0,,31140,2780,,,,,,,,,,,,,,,,,,The secret code is <strong>BOBCAT</strong>. Please press the 'Finish HIT' button once you've copied it down to paste in the original window.,0
,html-button-response,1372897.0,0.0-5.0,,7103,2781,,,,,,,,,,,,,,,,,,The secret code is <strong>BOBCAT</strong>. Please press the 'Finish HIT' button once you've copied it down to paste in the original window.,0
,html-button-response,1081422.0,0.0-5.0,,10815,2782,,,,,,,,,,,,,,,,,,The secret code is <strong>BOBCAT</strong>. Please press the 'Finish HIT' button once you've copied it down to paste in the original window.,0
,html-button-response,1013635.0,0.0-5.0,,18813,2698,,,,,,,,,,,,,,,,,,The secret code is <strong>BOBCAT</strong>. Please press the 'Finish HIT' button once you've copied it down to paste in the original window.,0
,html-button-response,1358989.0,0.0-5.0,,10215,2658,,,,,,,,,,,,,,,,,,The secret code is <strong>BOBCAT</strong>. Please press the 'Finish HIT' button once you've copied it down to paste in the original window.,0
,html-button-response,2226537.0,0.0-5.0,,11053,2659,,,,,,,,,,,,,,,,,,The secret code is <strong>BOBCAT</strong>. Please press the 'Finish HIT' button once you've copied it down to paste in the original window.,0
,html-button-response,996781.0,0.0-5.0,,5982,2660,,,,,,,,,,,,,,,,,,The secret code is <strong>BOBCAT</strong>. Please press the 'Finish HIT' button once you've copied it down to paste in the original window.,0
,html-button-response,878868.0,0.0-5.0,,13982,2559,,,,,,,,,,,,,,,,,,The secret code is <strong>BOBCAT</strong>. Please press the 'Finish HIT' button once you've copied it down to paste in the original window.,0
,html-button-response,1035801.0,0.0-5.0,,10100,2519,,,,,,,,,,,,,,,,,,The secret code is <strong>BOBCAT</strong>. Please press the 'Finish HIT' button once you've copied it down to paste in the original window.,0
,html-button-response,1351275.0,0.0-5.0,,18981,2485,,,,,,,,,,,,,,,,,,The secret code is <strong>BOBCAT</strong>. Please press the 'Finish HIT' button once you've copied it down to paste in the original window.,0
,html-button-response,1208031.0,0.0-5.0,,7153,2473,,,,,,,,,,,,,,,,,,The secret code is <strong>BOBCAT</strong>. Please press the 'Finish HIT' button once you've copied it down to paste in the original window.,0
,html-button-response,809532.0,0.0-5.0,,13414,2435,,,,,,,,,,,,,,,,,,The secret code is <strong>BOBCAT</strong>. Please press the 'Finish HIT' button once you've copied it down to paste in the original window.,0
,html-button-response,1102880.0,0.0-5.0,,5838,2389,,,,,,,,,,,,,,,,,,The secret code is <strong>BOBCAT</strong>. Please press the 'Finish HIT' button once you've copied it down to paste in the original window.,0
,html-button-response,2380142.0,0.0-5.0,,7587,2826,,,,,,,,,,,,,,,,,,The secret code is <strong>FIELDMOUSE</strong>. Please press the 'Finish HIT' button once you've copied it down to paste in the original window.,0
,html-button-response,946188.0,0.0-5.0,,5044,2783,,,,,,,,,,,,,,,,,,The secret code is <strong>FIELDMOUSE</strong>. Please press the 'Finish HIT' button once you've copied it down to paste in the original window.,0
,html-button-response,3830991.0,0.0-5.0,,14740,2784,,,,,,,,,,,,,,,,,,The secret code is <strong>FIELDMOUSE</strong>. Please press the 'Finish HIT' button once you've copied it down to paste in the original window.,0
,html-button-response,2583128.0,0.0-5.0,,10966,2730,,,,,,,,,,,,,,,,,,The secret code is <strong>FIELDMOUSE</strong>. Please press the 'Finish HIT' button once you've copied it down to paste in the original window.,0
,html-button-response,2628812.0,0.0-5.0,,8087,2692,,,,,,,,,,,,,,,,,,The secret code is <strong>FIELDMOUSE</strong>. Please press the 'Finish HIT' button once you've copied it down to paste in the original window.,0
,html-button-response,1374874.0,0.0-5.0,,10661,2661,,,,,,,,,,,,,,,,,,The secret code is <strong>FIELDMOUSE</strong>. Please press the 'Finish HIT' button once you've copied it down to paste in the original window.,0
,html-button-response,2417230.0,0.0-5.0,,4330,2662,,,,,,,,,,,,,,,,,,The secret code is <strong>FIELDMOUSE</strong>. Please press the 'Finish HIT' button once you've copied it down to paste in the original window.,0
,html-button-response,1337293.0,0.0-5.0,,8571,2560,,,,,,,,,,,,,,,,,,The secret code is <strong>FIELDMOUSE</strong>. Please press the 'Finish HIT' button once you've copied it down to paste in the original window.,0
,html-button-response,2103813.0,0.0-5.0,,7379,2561,,,,,,,,,,,,,,,,,,The secret code is <strong>FIELDMOUSE</strong>. Please press the 'Finish HIT' button once you've copied it down to paste in the original window.,0
,html-button-response,1918250.0,0.0-5.0,,4499,2562,,,,,,,,,,,,,,,,,,The secret code is <strong>FIELDMOUSE</strong>. Please press the 'Finish HIT' button once you've copied it down to paste in the original window.,0
,html-button-response,1233078.0,0.0-5.0,,4250,2504,,,,,,,,,,,,,,,,,,The secret code is <strong>FIELDMOUSE</strong>. Please press the 'Finish HIT' button once you've copied it down to paste in the original window.,0
,html-button-response,2076468.0,0.0-5.0,,5839,2452,,,,,,,,,,,,,,,,,,The secret code is <strong>FIELDMOUSE</strong>. Please press the 'Finish HIT' button once you've copied it down to paste in the original window.,0
,html-button-response,2731651.0,0.0-5.0,,8710,2402,,,,,,,,,,,,,,,,,,The secret code is <strong>FIELDMOUSE</strong>. Please press the 'Finish HIT' button once you've copied it down to paste in the original window.,0
,html-button-response,1396489.0,0.0-5.0,,2857,2390,,,,,,,,,,,,,,,,,,The secret code is <strong>FIELDMOUSE</strong>. Please press the 'Finish HIT' button once you've copied it down to paste in the original window.,0
,html-button-response,3240638.0,0.0-5.0,,3316,2827,,,,,,,,,,,,,,,,,,The secret code is <strong>HEDGEHOG</strong>. Please press the 'Finish HIT' button once you've copied it down to paste in the original window.,0
,html-button-response,1120967.0,0.0-5.0,,10745,2785,,,,,,,,,,,,,,,,,,The secret code is <strong>HEDGEHOG</strong>. Please press the 'Finish HIT' button once you've copied it down to paste in the original window.,0
,html-button-response,3150591.0,0.0-5.0,,15351,2743,,,,,,,,,,,,,,,,,,The secret code is <strong>HEDGEHOG</strong>. Please press the 'Finish HIT' button once you've copied it down to paste in the original window.,0
,html-button-response,2952050.0,0.0-5.0,,8719,2731,,,,,,,,,,,,,,,,,,The secret code is <strong>HEDGEHOG</strong>. Please press the 'Finish HIT' button once you've copied it down to paste in the original window.,0
,html-button-response,957086.0,0.0-5.0,,5528,2709,,,,,,,,,,,,,,,,,,The secret code is <strong>HEDGEHOG</strong>. Please press the 'Finish HIT' button once you've copied it down to paste in the original window.,0
,html-button-response,1487910.0,0.0-5.0,,26197,2663,,,,,,,,,,,,,,,,,,The secret code is <strong>HEDGEHOG</strong>. Please press the 'Finish HIT' button once you've copied it down to paste in the original window.,0
,html-button-response,869233.0,0.0-5.0,,19245,2664,,,,,,,,,,,,,,,,,,The secret code is <strong>HEDGEHOG</strong>. Please press the 'Finish HIT' button once you've copied it down to paste in the original window.,0
,html-button-response,3408221.0,0.0-5.0,,14184,2563,,,,,,,,,,,,,,,,,,The secret code is <strong>HEDGEHOG</strong>. Please press the 'Finish HIT' button once you've copied it down to paste in the original window.,0
,html-button-response,2492489.0,0.0-5.0,,11609,2564,,,,,,,,,,,,,,,,,,The secret code is <strong>HEDGEHOG</strong>. Please press the 'Finish HIT' button once you've copied it down to paste in the original window.,0
,html-button-response,3124769.0,0.0-5.0,,17710,2565,,,,,,,,,,,,,,,,,,The secret code is <strong>HEDGEHOG</strong>. Please press the 'Finish HIT' button once you've copied it down to paste in the original window.,0
,html-button-response,3202496.0,0.0-5.0,,10118,2509,,,,,,,,,,,,,,,,,,The secret code is <strong>HEDGEHOG</strong>. Please press the 'Finish HIT' button once you've copied it down to paste in the original window.,0
,html-button-response,2887879.0,0.0-5.0,,6223,2478,,,,,,,,,,,,,,,,,,The secret code is <strong>HEDGEHOG</strong>. Please press the 'Finish HIT' button once you've copied it down to paste in the original window.,0
,html-button-response,1063676.0,0.0-5.0,,10206,2436,,,,,,,,,,,,,,,,,,The secret code is <strong>HEDGEHOG</strong>. Please press the 'Finish HIT' button once you've copied it down to paste in the original window.,0
,html-button-response,2544107.0,0.0-5.0,,24352,2391,,,,,,,,,,,,,,,,,,The secret code is <strong>HEDGEHOG</strong>. Please press the 'Finish HIT' button once you've copied it down to paste in the original window.,0
,html-button-response,1426608.0,0.0-5.0,,7773,2786,,,,,,,,,,,,,,,,,,The secret code is <strong>BIGHORN</strong>. Please press the 'Finish HIT' button once you've copied it down to paste in the original window.,0
,html-button-response,1535775.0,0.0-5.0,,3783,2787,,,,,,,,,,,,,,,,,,The secret code is <strong>BIGHORN</strong>. Please press the 'Finish HIT' button once you've copied it down to paste in the original window.,0
,html-button-response,1383595.0,0.0-5.0,,16667,2788,,,,,,,,,,,,,,,,,,The secret code is <strong>BIGHORN</strong>. Please press the 'Finish HIT' button once you've copied it down to paste in the original window.,0
,html-button-response,1723740.0,0.0-5.0,,15742,2732,,,,,,,,,,,,,,,,,,The secret code is <strong>BIGHORN</strong>. Please press the 'Finish HIT' button once you've copied it down to paste in the original window.,0
,html-button-response,1904436.0,0.0-5.0,,7248,2693,,,,,,,,,,,,,,,,,,The secret code is <strong>BIGHORN</strong>. Please press the 'Finish HIT' button once you've copied it down to paste in the original window.,0
,html-button-response,1860356.0,0.0-5.0,,5062,2665,,,,,,,,,,,,,,,,,,The secret code is <strong>BIGHORN</strong>. Please press the 'Finish HIT' button once you've copied it down to paste in the original window.,0
,html-button-response,1223592.0,0.0-5.0,,13439,2666,,,,,,,,,,,,,,,,,,The secret code is <strong>BIGHORN</strong>. Please press the 'Finish HIT' button once you've copied it down to paste in the original window.,0
,html-button-response,1322672.0,0.0-5.0,,8814,2566,,,,,,,,,,,,,,,,,,The secret code is <strong>BIGHORN</strong>. Please press the 'Finish HIT' button once you've copied it down to paste in the original window.,0
,html-button-response,975419.0,0.0-5.0,,10510,2567,,,,,,,,,,,,,,,,,,The secret code is <strong>BIGHORN</strong>. Please press the 'Finish HIT' button once you've copied it down to paste in the original window.,0
,html-button-response,1861799.0,0.0-5.0,,16346,2568,,,,,,,,,,,,,,,,,,The secret code is <strong>BIGHORN</strong>. Please press the 'Finish HIT' button once you've copied it down to paste in the original window.,0
,html-button-response,1612996.0,0.0-5.0,,20746,2486,,,,,,,,,,,,,,,,,,The secret code is <strong>BIGHORN</strong>. Please press the 'Finish HIT' button once you've copied it down to paste in the original window.,0
,html-button-response,1976997.0,0.0-5.0,,6753,2474,,,,,,,,,,,,,,,,,,The secret code is <strong>BIGHORN</strong>. Please press the 'Finish HIT' button once you've copied it down to paste in the original window.,0
,html-button-response,1424163.0,0.0-5.0,,5189,2426,,,,,,,,,,,,,,,,,,The secret code is <strong>BIGHORN</strong>. Please press the 'Finish HIT' button once you've copied it down to paste in the original window.,0
,html-button-response,802731.0,0.0-5.0,,3571,2392,,,,,,,,,,,,,,,,,,The secret code is <strong>BIGHORN</strong>. Please press the 'Finish HIT' button once you've copied it down to paste in the original window.,0
,html-button-response,3822321.0,0.0-5.0,,63024,2789,,,,,,,,,,,,,,,,,,The secret code is <strong>CHINCHILLA</strong>. Please press the 'Finish HIT' button once you've copied it down to paste in the original window.,0
,html-button-response,2173358.0,0.0-5.0,,8820,2790,,,,,,,,,,,,,,,,,,The secret code is <strong>CHINCHILLA</strong>. Please press the 'Finish HIT' button once you've copied it down to paste in the original window.,0
,html-button-response,890260.0,0.0-5.0,,6534,2791,,,,,,,,,,,,,,,,,,The secret code is <strong>CHINCHILLA</strong>. Please press the 'Finish HIT' button once you've copied it down to paste in the original window.,0
,html-button-response,1286010.0,0.0-5.0,,15294,2733,,,,,,,,,,,,,,,,,,The secret code is <strong>CHINCHILLA</strong>. Please press the 'Finish HIT' button once you've copied it down to paste in the original window.,0
,html-button-response,292899.0,0.0-5.0,,5260.0,2694,,,,,,,,,,,,,,,,,,The secret code is <strong>CHINCHILLA</strong>. Please press the 'Finish HIT' button once you've copied it down to paste in the original window.,0
,html-button-response,1035766.0,0.0-5.0,,26353,2667,,,,,,,,,,,,,,,,,,The secret code is <strong>CHINCHILLA</strong>. Please press the 'Finish HIT' button once you've copied it down to paste in the original window.,0
,html-button-response,2369960.0,0.0-5.0,,14406,2668,,,,,,,,,,,,,,,,,,The secret code is <strong>CHINCHILLA</strong>. Please press the 'Finish HIT' button once you've copied it down to paste in the original window.,0
,html-button-response,1115982.0,0.0-5.0,,22151,2569,,,,,,,,,,,,,,,,,,The secret code is <strong>CHINCHILLA</strong>. Please press the 'Finish HIT' button once you've copied it down to paste in the original window.,0
,html-button-response,997235.0,0.0-5.0,,25419,2570,,,,,,,,,,,,,,,,,,The secret code is <strong>CHINCHILLA</strong>. Please press the 'Finish HIT' button once you've copied it down to paste in the original window.,0
,html-button-response,7842094.0,0.0-5.0,,5248,2512,,,,,,,,,,,,,,,,,,The secret code is <strong>CHINCHILLA</strong>. Please press the 'Finish HIT' button once you've copied it down to paste in the original window.,0
,html-button-response,910589.0,0.0-5.0,,16989,2497,,,,,,,,,,,,,,,,,,The secret code is <strong>CHINCHILLA</strong>. Please press the 'Finish HIT' button once you've copied it down to paste in the original window.,0
,html-button-response,1373881.0,0.0-5.0,,23370,2453,,,,,,,,,,,,,,,,,,The secret code is <strong>CHINCHILLA</strong>. Please press the 'Finish HIT' button once you've copied it down to paste in the original window.,0
,html-button-response,1863114.0,0.0-5.0,,28495,855,,,,,,,,,,,,,,,,,,The secret code is <strong>CHINCHILLA</strong>. Please press the 'Finish HIT' button once you've copied it down to paste in the original window.,0
,html-button-response,1639179.0,0.0-5.0,,32400,2393,,,,,,,,,,,,,,,,,,The secret code is <strong>CHINCHILLA</strong>. Please press the 'Finish HIT' button once you've copied it down to paste in the original window.,0
,html-button-response,1162467.0,0.0-5.0,,9615,2792,,,,,,,,,,,,,,,,,,The secret code is <strong>PORCUPINE</strong>. Please press the 'Finish HIT' button once you've copied it down to paste in the original window.,0
,html-button-response,947870.0,0.0-5.0,,7992,2793,,,,,,,,,,,,,,,,,,The secret code is <strong>PORCUPINE</strong>. Please press the 'Finish HIT' button once you've copied it down to paste in the original window.,0
,html-button-response,3456005.0,0.0-5.0,,4935,2744,,,,,,,,,,,,,,,,,,The secret code is <strong>PORCUPINE</strong>. Please press the 'Finish HIT' button once you've copied it down to paste in the original window.,0
,html-button-response,2987530.0,0.0-5.0,,14675,2734,,,,,,,,,,,,,,,,,,The secret code is <strong>PORCUPINE</strong>. Please press the 'Finish HIT' button once you've copied it down to paste in the original window.,0
,html-button-response,3207752.0,0.0-5.0,,30792,2669,,,,,,,,,,,,,,,,,,The secret code is <strong>PORCUPINE</strong>. Please press the 'Finish HIT' button once you've copied it down to paste in the original window.,0
,html-button-response,1857112.0,0.0-5.0,,7037,2670,,,,,,,,,,,,,,,,,,The secret code is <strong>PORCUPINE</strong>. Please press the 'Finish HIT' button once you've copied it down to paste in the original window.,0
,html-button-response,2637725.0,0.0-5.0,,14849,2571,,,,,,,,,,,,,,,,,,The secret code is <strong>PORCUPINE</strong>. Please press the 'Finish HIT' button once you've copied it down to paste in the original window.,0
,html-button-response,1165592.0,0.0-5.0,,17872,2572,,,,,,,,,,,,,,,,,,The secret code is <strong>PORCUPINE</strong>. Please press the 'Finish HIT' button once you've copied it down to paste in the original window.,0
,html-button-response,2947728.0,0.0-5.0,,9095,2573,,,,,,,,,,,,,,,,,,The secret code is <strong>PORCUPINE</strong>. Please press the 'Finish HIT' button once you've copied it down to paste in the original window.,0
,html-button-response,1389210.0,0.0-5.0,,7148,2520,,,,,,,,,,,,,,,,,,The secret code is <strong>PORCUPINE</strong>. Please press the 'Finish HIT' button once you've copied it down to paste in the original window.,0
,html-button-response,3740637.0,0.0-5.0,,13518,2464,,,,,,,,,,,,,,,,,,The secret code is <strong>PORCUPINE</strong>. Please press the 'Finish HIT' button once you've copied it down to paste in the original window.,0
,html-button-response,849262.0,0.0-5.0,,7068,2454,,,,,,,,,,,,,,,,,,The secret code is <strong>PORCUPINE</strong>. Please press the 'Finish HIT' button once you've copied it down to paste in the original window.,0
,html-button-response,3749861.0,0.0-5.0,,8085,2437,,,,,,,,,,,,,,,,,,The secret code is <strong>PORCUPINE</strong>. Please press the 'Finish HIT' button once you've copied it down to paste in the original window.,0
,html-button-response,780363.0,0.0-5.0,,8196,2283,,,,,,,,,,,,,,,,,,The secret code is <strong>PORCUPINE</strong>. Please press the 'Finish HIT' button once you've copied it down to paste in the original window.,0
,html-button-response,1577525.0,0.0-5.0,,6431,2828,,,,,,,,,,,,,,,,,,The secret code is <strong>GUANACO</strong>. Please press the 'Finish HIT' button once you've copied it down to paste in the original window.,0
,html-button-response,3485557.0,0.0-5.0,,5678,2794,,,,,,,,,,,,,,,,,,The secret code is <strong>GUANACO</strong>. Please press the 'Finish HIT' button once you've copied it down to paste in the original window.,0
,html-button-response,1509974.0,0.0-5.0,,11756,2795,,,,,,,,,,,,,,,,,,The secret code is <strong>GUANACO</strong>. Please press the 'Finish HIT' button once you've copied it down to paste in the original window.,0
,html-button-response,1591779.0,0.0-5.0,,9427,2735,,,,,,,,,,,,,,,,,,The secret code is <strong>GUANACO</strong>. Please press the 'Finish HIT' button once you've copied it down to paste in the original window.,0
,html-button-response,3837265.0,0.0-5.0,,8481,2684,,,,,,,,,,,,,,,,,,The secret code is <strong>GUANACO</strong>. Please press the 'Finish HIT' button once you've copied it down to paste in the original window.,0
,html-button-response,2911983.0,0.0-5.0,,10400,2671,,,,,,,,,,,,,,,,,,The secret code is <strong>GUANACO</strong>. Please press the 'Finish HIT' button once you've copied it down to paste in the original window.,0
,html-button-response,1683402.0,0.0-5.0,,12116,2608,,,,,,,,,,,,,,,,,,The secret code is <strong>GUANACO</strong>. Please press the 'Finish HIT' button once you've copied it down to paste in the original window.,0
,html-button-response,2669892.0,0.0-5.0,,14476,2574,,,,,,,,,,,,,,,,,,The secret code is <strong>GUANACO</strong>. Please press the 'Finish HIT' button once you've copied it down to paste in the original window.,0
,html-button-response,2700865.0,0.0-5.0,,20407,2575,,,,,,,,,,,,,,,,,,The secret code is <strong>GUANACO</strong>. Please press the 'Finish HIT' button once you've copied it down to paste in the original window.,0
,html-button-response,3313038.0,0.0-5.0,,33515,2465,,,,,,,,,,,,,,,,,,The secret code is <strong>GUANACO</strong>. Please press the 'Finish HIT' button once you've copied it down to paste in the original window.,0
,html-button-response,4523444.0,0.0-5.0,,18707,2438,,,,,,,,,,,,,,,,,,The secret code is <strong>GUANACO</strong>. Please press the 'Finish HIT' button once you've copied it down to paste in the original window.,0
,html-button-response,2766485.0,0.0-5.0,,32578,2455,,,,,,,,,,,,,,,,,,The secret code is <strong>GUANACO</strong>. Please press the 'Finish HIT' button once you've copied it down to paste in the original window.,0
,html-button-response,5324755.0,0.0-5.0,,6308,2427,,,,,,,,,,,,,,,,,,The secret code is <strong>GUANACO</strong>. Please press the 'Finish HIT' button once you've copied it down to paste in the original window.,0
,html-button-response,1200481.0,0.0-5.0,,11872,2404,,,,,,,,,,,,,,,,,,The secret code is <strong>GUANACO</strong>. Please press the 'Finish HIT' button once you've copied it down to paste in the original window.,0
,html-button-response,1461061.0,0.0-5.0,,12140,2796,,,,,,,,,,,,,,,,,,The secret code is <strong>WALRUS</strong>. Please press the 'Finish HIT' button once you've copied it down to paste in the original window.,0
,html-button-response,2077781.0,0.0-5.0,,7741,2797,,,,,,,,,,,,,,,,,,The secret code is <strong>WALRUS</strong>. Please press the 'Finish HIT' button once you've copied it down to paste in the original window.,0
,html-button-response,2332017.0,0.0-5.0,,28042,2736,,,,,,,,,,,,,,,,,,The secret code is <strong>WALRUS</strong>. Please press the 'Finish HIT' button once you've copied it down to paste in the original window.,0
,html-button-response,1347616.0,0.0-5.0,,7717,192,,,,,,,,,,,,,,,,,,The secret code is <strong>WALRUS</strong>. Please press the 'Finish HIT' button once you've copied it down to paste in the original window.,0
,html-button-response,3304670.0,0.0-5.0,,11122,2699,,,,,,,,,,,,,,,,,,The secret code is <strong>WALRUS</strong>. Please press the 'Finish HIT' button once you've copied it down to paste in the original window.,0
,html-button-response,3447290.0,0.0-5.0,,12604,2672,,,,,,,,,,,,,,,,,,The secret code is <strong>WALRUS</strong>. Please press the 'Finish HIT' button once you've copied it down to paste in the original window.,0
,html-button-response,1083802.0,0.0-5.0,,16868,2673,,,,,,,,,,,,,,,,,,The secret code is <strong>WALRUS</strong>. Please press the 'Finish HIT' button once you've copied it down to paste in the original window.,0
,html-button-response,3539403.0,0.0-5.0,,33163,2609,,,,,,,,,,,,,,,,,,The secret code is <strong>WALRUS</strong>. Please press the 'Finish HIT' button once you've copied it down to paste in the original window.,0
,html-button-response,1210987.0,0.0-5.0,,8492,2576,,,,,,,,,,,,,,,,,,The secret code is <strong>WALRUS</strong>. Please press the 'Finish HIT' button once you've copied it down to paste in the original window.,0
,html-button-response,1103400.0,0.0-5.0,,4265,2577,,,,,,,,,,,,,,,,,,The secret code is <strong>WALRUS</strong>. Please press the 'Finish HIT' button once you've copied it down to paste in the original window.,0
,html-button-response,1385935.0,0.0-5.0,,3623,2578,,,,,,,,,,,,,,,,,,The secret code is <strong>WALRUS</strong>. Please press the 'Finish HIT' button once you've copied it down to paste in the original window.,0
,html-button-response,1184981.0,0.0-5.0,,13430,2475,,,,,,,,,,,,,,,,,,The secret code is <strong>WALRUS</strong>. Please press the 'Finish HIT' button once you've copied it down to paste in the original window.,0
,html-button-response,1315522.0,0.0-5.0,,6098,2405,,,,,,,,,,,,,,,,,,The secret code is <strong>WALRUS</strong>. Please press the 'Finish HIT' button once you've copied it down to paste in the original window.,0
,html-button-response,3501585.0,0.0-5.0,,15464,2406,,,,,,,,,,,,,,,,,,The secret code is <strong>WALRUS</strong>. Please press the 'Finish HIT' button once you've copied it down to paste in the original window.,0
,html-button-response,1536610.0,0.0-5.0,,46741,2798,,,,,,,,,,,,,,,,,,The secret code is <strong>DROMEDARY</strong>. Please press the 'Finish HIT' button once you've copied it down to paste in the original window.,0
,html-button-response,1167590.0,0.0-5.0,,39412,2799,,,,,,,,,,,,,,,,,,The secret code is <strong>DROMEDARY</strong>. Please press the 'Finish HIT' button once you've copied it down to paste in the original window.,0
,html-button-response,989061.0,0.0-5.0,,7645,2737,,,,,,,,,,,,,,,,,,The secret code is <strong>DROMEDARY</strong>. Please press the 'Finish HIT' button once you've copied it down to paste in the original window.,0
,html-button-response,2987800.0,0.0-5.0,,21659,2738,,,,,,,,,,,,,,,,,,The secret code is <strong>DROMEDARY</strong>. Please press the 'Finish HIT' button once you've copied it down to paste in the original window.,0
,html-button-response,4536669.0,0.0-5.0,,22344,2674,,,,,,,,,,,,,,,,,,The secret code is <strong>DROMEDARY</strong>. Please press the 'Finish HIT' button once you've copied it down to paste in the original window.,0
,html-button-response,1864147.0,0.0-5.0,,20821,2675,,,,,,,,,,,,,,,,,,The secret code is <strong>DROMEDARY</strong>. Please press the 'Finish HIT' button once you've copied it down to paste in the original window.,0
,html-button-response,5045415.0,0.0-5.0,,6635,2579,,,,,,,,,,,,,,,,,,The secret code is <strong>DROMEDARY</strong>. Please press the 'Finish HIT' button once you've copied it down to paste in the original window.,0
,html-button-response,2187712.0,0.0-5.0,,10182,2580,,,,,,,,,,,,,,,,,,The secret code is <strong>DROMEDARY</strong>. Please press the 'Finish HIT' button once you've copied it down to paste in the original window.,0
,html-button-response,1435446.0,0.0-5.0,,10953,2581,,,,,,,,,,,,,,,,,,The secret code is <strong>DROMEDARY</strong>. Please press the 'Finish HIT' button once you've copied it down to paste in the original window.,0
,html-button-response,5668374.0,0.0-5.0,,10404,1721,,,,,,,,,,,,,,,,,,The secret code is <strong>DROMEDARY</strong>. Please press the 'Finish HIT' button once you've copied it down to paste in the original window.,0
,html-button-response,1501787.0,0.0-5.0,,24158,2487,,,,,,,,,,,,,,,,,,The secret code is <strong>DROMEDARY</strong>. Please press the 'Finish HIT' button once you've copied it down to paste in the original window.,0
,html-button-response,1359802.0,0.0-5.0,,3256,2456,,,,,,,,,,,,,,,,,,The secret code is <strong>DROMEDARY</strong>. Please press the 'Finish HIT' button once you've copied it down to paste in the original window.,0
,html-button-response,1209703.0,0.0-5.0,,5183,2439,,,,,,,,,,,,,,,,,,The secret code is <strong>DROMEDARY</strong>. Please press the 'Finish HIT' button once you've copied it down to paste in the original window.,0
,html-button-response,1863007.0,0.0-5.0,,7026,2440,,,,,,,,,,,,,,,,,,The secret code is <strong>DROMEDARY</strong>. Please press the 'Finish HIT' button once you've copied it down to paste in the original window.,0
,html-button-response,4626254.0,0.0-5.0,,43299,2800,,,,,,,,,,,,,,,,,,The secret code is <strong>AOUDAD</strong>. Please press the 'Finish HIT' button once you've copied it down to paste in the original window.,0
,html-button-response,2290672.0,0.0-5.0,,10898,2801,,,,,,,,,,,,,,,,,,The secret code is <strong>AOUDAD</strong>. Please press the 'Finish HIT' button once you've copied it down to paste in the original window.,0
,html-button-response,1743510.0,0.0-5.0,,6822,2802,,,,,,,,,,,,,,,,,,The secret code is <strong>AOUDAD</strong>. Please press the 'Finish HIT' button once you've copied it down to paste in the original window.,0
,html-button-response,1789537.0,0.0-5.0,,351228,2739,,,,,,,,,,,,,,,,,,The secret code is <strong>AOUDAD</strong>. Please press the 'Finish HIT' button once you've copied it down to paste in the original window.,0
,html-button-response,904638.0,0.0-5.0,,7022,2676,,,,,,,,,,,,,,,,,,The secret code is <strong>AOUDAD</strong>. Please press the 'Finish HIT' button once you've copied it down to paste in the original window.,0
,html-button-response,3947552.0,0.0-5.0,,17034,2677,,,,,,,,,,,,,,,,,,The secret code is <strong>AOUDAD</strong>. Please press the 'Finish HIT' button once you've copied it down to paste in the original window.,0
,html-button-response,1120274.0,0.0-5.0,,3375,2678,,,,,,,,,,,,,,,,,,The secret code is <strong>AOUDAD</strong>. Please press the 'Finish HIT' button once you've copied it down to paste in the original window.,0
,html-button-response,2415147.0,0.0-5.0,,4083,2582,,,,,,,,,,,,,,,,,,The secret code is <strong>AOUDAD</strong>. Please press the 'Finish HIT' button once you've copied it down to paste in the original window.,0
,html-button-response,2547346.0,0.0-5.0,,37122,2583,,,,,,,,,,,,,,,,,,The secret code is <strong>AOUDAD</strong>. Please press the 'Finish HIT' button once you've copied it down to paste in the original window.,0
,html-button-response,1383239.0,0.0-5.0,,17990,2510,,,,,,,,,,,,,,,,,,The secret code is <strong>AOUDAD</strong>. Please press the 'Finish HIT' button once you've copied it down to paste in the original window.,0
,html-button-response,3281445.0,0.0-5.0,,26334,2498,,,,,,,,,,,,,,,,,,The secret code is <strong>AOUDAD</strong>. Please press the 'Finish HIT' button once you've copied it down to paste in the original window.,0
,html-button-response,984781.0,0.0-5.0,,19832,2418,,,,,,,,,,,,,,,,,,The secret code is <strong>AOUDAD</strong>. Please press the 'Finish HIT' button once you've copied it down to paste in the original window.,0
,html-button-response,2600698.0,0.0-5.0,,8386,2407,,,,,,,,,,,,,,,,,,The secret code is <strong>AOUDAD</strong>. Please press the 'Finish HIT' button once you've copied it down to paste in the original window.,0
,html-button-response,3922983.0,0.0-5.0,,29554,2408,,,,,,,,,,,,,,,,,,The secret code is <strong>AOUDAD</strong>. Please press the 'Finish HIT' button once you've copied it down to paste in the original window.,0
