success,trial_type,time_elapsed,internal_node_id,view_history,rt,pid,responses,correct,revealed_states,num_clicks_accrued,state_rewards,trial_id,block,trial_index,score,simulation_mode,rewards,path,actions,action_times,queries,displayed_time,trial_time,stimulus,button_pressed
,instructions,23899.0,0.0-1.0-0.0,"[{""page_index"":0,""viewing_time"":4594},{""page_index"":1,""viewing_time"":4151},{""page_index"":2,""viewing_time"":1509},{""page_index"":3,""viewing_time"":1300},{""page_index"":4,""viewing_time"":638},{""page_index"":5,""viewing_time"":6385},{""page_index"":6,""viewing_time"":1392},{""page_index"":7,""viewing_time"":1687}]",21656.0,2610,,,,,,,,,,,,,,,,,,,
,instructions,63440.0,0.0-1.0-0.0,"[{""page_index"":0,""viewing_time"":3547},{""page_index"":1,""viewing_time"":6764},{""page_index"":2,""viewing_time"":20315},{""page_index"":3,""viewing_time"":6367},{""page_index"":4,""viewing_time"":7260},{""page_index"":5,""viewing_time"":7340},{""page_index"":6,""viewing_time"":3987},{""page_index"":7,""viewing_time"":5021}]",60604,2611,,,,,,,,,,,,,,,,,,,
,instructions,90636.0,0.0-3.0-0.0,"[{""page_index"":0,""viewing_time"":5561}]",5563,2611,,,,,,,,,,,,,,,,,,,
,instructions,37779.0,0.0-1.0-0.0,"[{""page_index"":0,""viewing_time"":2996},{""page_index"":1,""viewing_time"":7183},{""page_index"":2,""viewing_time"":9408},{""page_index"":3,""viewing_time"":4576},{""page_index"":4,""viewing_time"":3808},{""page_index"":5,""viewing_time"":4056},{""page_index"":6,""viewing_time"":1848},{""page_index"":7,""viewing_time"":1872}]",35748.0,2521,,,,,,,,,,,,,,,,,,,
,instructions,146062.0,0.0-1.0-0.0,"[{""page_index"":0,""viewing_time"":11244},{""page_index"":1,""viewing_time"":27332},{""page_index"":2,""viewing_time"":24220},{""page_index"":3,""viewing_time"":13402},{""page_index"":4,""viewing_time"":13336},{""page_index"":5,""viewing_time"":15618},{""page_index"":6,""viewing_time"":22850},{""page_index"":7,""viewing_time"":14431}]",142434.0,2411,,,,,,,,,,,,,,,,,,,
,instructions,256172.0,0.0-1.1-0.1,"[{""page_index"":0,""viewing_time"":2635},{""page_index"":1,""viewing_time"":4365},{""page_index"":2,""viewing_time"":16118},{""page_index"":3,""viewing_time"":6714},{""page_index"":4,""viewing_time"":3670},{""page_index"":5,""viewing_time"":10469},{""page_index"":6,""viewing_time"":11683},{""page_index"":7,""viewing_time"":1833}]",57487.0,2411,,,,,,,,,,,,,,,,,,,
,instructions,93862.0,0.0-1.0-0.0,"[{""page_index"":0,""viewing_time"":8638},{""page_index"":1,""viewing_time"":25263},{""page_index"":2,""viewing_time"":19369},{""page_index"":3,""viewing_time"":6896},{""page_index"":4,""viewing_time"":6517},{""page_index"":5,""viewing_time"":8572},{""page_index"":6,""viewing_time"":8758},{""page_index"":7,""viewing_time"":6626}]",90640.0,2710,,,,,,,,,,,,,,,,,,,
,instructions,121133.0,0.0-1.0-0.0,"[{""page_index"":0,""viewing_time"":6927},{""page_index"":1,""viewing_time"":24080},{""page_index"":2,""viewing_time"":31175},{""page_index"":3,""viewing_time"":8488},{""page_index"":4,""viewing_time"":10368},{""page_index"":5,""viewing_time"":8792},{""page_index"":6,""viewing_time"":21752},{""page_index"":7,""viewing_time"":6864}]",118449,2711,,,,,,,,,,,,,,,,,,,
,instructions,252756.0,0.0-1.1-0.1,"[{""page_index"":0,""viewing_time"":7279},{""page_index"":1,""viewing_time"":7176},{""page_index"":2,""viewing_time"":12376},{""page_index"":3,""viewing_time"":25040},{""page_index"":4,""viewing_time"":9288},{""page_index"":5,""viewing_time"":3808},{""page_index"":6,""viewing_time"":7848},{""page_index"":7,""viewing_time"":2368}]",75185,2711,,,,,,,,,,,,,,,,,,,
,instructions,295371.0,0.0-3.0-0.0,"[{""page_index"":0,""viewing_time"":24943}]",24944,2711,,,,,,,,,,,,,,,,,,,
,instructions,69116.0,0.0-1.0-0.0,"[{""page_index"":0,""viewing_time"":6210},{""page_index"":1,""viewing_time"":16848},{""page_index"":2,""viewing_time"":11879},{""page_index"":3,""viewing_time"":9321},{""page_index"":4,""viewing_time"":6484},{""page_index"":5,""viewing_time"":4188},{""page_index"":6,""viewing_time"":6914},{""page_index"":7,""viewing_time"":4011}]",65856.0,2613,,,,,,,,,,,,,,,,,,,
,instructions,156649.0,0.0-1.0-0.0,"[{""page_index"":0,""viewing_time"":11054},{""page_index"":1,""viewing_time"":24112},{""page_index"":2,""viewing_time"":34597},{""page_index"":3,""viewing_time"":16859},{""page_index"":4,""viewing_time"":13786},{""page_index"":5,""viewing_time"":13475},{""page_index"":6,""viewing_time"":20138},{""page_index"":7,""viewing_time"":15608}]",149632,2585,,,,,,,,,,,,,,,,,,,
,instructions,287206.0,0.0-1.1-0.1,"[{""page_index"":0,""viewing_time"":2741},{""page_index"":1,""viewing_time"":13189},{""page_index"":2,""viewing_time"":7610},{""page_index"":3,""viewing_time"":6865},{""page_index"":4,""viewing_time"":8453},{""page_index"":5,""viewing_time"":4712},{""page_index"":6,""viewing_time"":24215},{""page_index"":7,""viewing_time"":4771}]",72558,2585,,,,,,,,,,,,,,,,,,,
,instructions,378234.0,0.0-3.0-0.0,"[{""page_index"":0,""viewing_time"":10649}]",10651,2585,,,,,,,,,,,,,,,,,,,
,instructions,78872.0,0.0-1.0-0.0,"[{""page_index"":0,""viewing_time"":5840},{""page_index"":1,""viewing_time"":15976},{""page_index"":2,""viewing_time"":15312},{""page_index"":3,""viewing_time"":8473},{""page_index"":4,""viewing_time"":8440},{""page_index"":5,""viewing_time"":9224},{""page_index"":6,""viewing_time"":7214},{""page_index"":7,""viewing_time"":5204}]",75684.0,2614,,,,,,,,,,,,,,,,,,,
,instructions,213160.0,0.0-1.0-0.0,"[{""page_index"":0,""viewing_time"":13871},{""page_index"":1,""viewing_time"":32493},{""page_index"":2,""viewing_time"":28216},{""page_index"":3,""viewing_time"":55304},{""page_index"":4,""viewing_time"":17701},{""page_index"":5,""viewing_time"":12312},{""page_index"":6,""viewing_time"":30050},{""page_index"":7,""viewing_time"":16365}]",206314.0,2599,,,,,,,,,,,,,,,,,,,
,instructions,21442.0,0.0-1.0-0.0,"[{""page_index"":0,""viewing_time"":1476},{""page_index"":1,""viewing_time"":5935},{""page_index"":2,""viewing_time"":3570},{""page_index"":3,""viewing_time"":1232},{""page_index"":4,""viewing_time"":899},{""page_index"":5,""viewing_time"":2735},{""page_index"":6,""viewing_time"":1174},{""page_index"":7,""viewing_time"":1006}]",18029,2808,,,,,,,,,,,,,,,,,,,
,instructions,57130.0,0.0-1.1-0.1,"[{""page_index"":0,""viewing_time"":975},{""page_index"":1,""viewing_time"":5645},{""page_index"":2,""viewing_time"":2856},{""page_index"":3,""viewing_time"":2298},{""page_index"":4,""viewing_time"":1203},{""page_index"":5,""viewing_time"":2616},{""page_index"":6,""viewing_time"":1916},{""page_index"":7,""viewing_time"":1305}]",18814,2808,,,,,,,,,,,,,,,,,,,
,instructions,97831.0,0.0-1.2-0.2,"[{""page_index"":0,""viewing_time"":1099},{""page_index"":1,""viewing_time"":1579},{""page_index"":2,""viewing_time"":5071},{""page_index"":3,""viewing_time"":3202},{""page_index"":4,""viewing_time"":1013},{""page_index"":5,""viewing_time"":6213},{""page_index"":6,""viewing_time"":3160},{""page_index"":7,""viewing_time"":959}]",22297,2808,,,,,,,,,,,,,,,,,,,
,instructions,146168.0,0.0-1.3-0.3,"[{""page_index"":0,""viewing_time"":1141},{""page_index"":1,""viewing_time"":1722},{""page_index"":2,""viewing_time"":2815},{""page_index"":3,""viewing_time"":2933},{""page_index"":4,""viewing_time"":3019},{""page_index"":5,""viewing_time"":3768},{""page_index"":6,""viewing_time"":9513},{""page_index"":7,""viewing_time"":1298}]",26210,2808,,,,,,,,,,,,,,,,,,,
,instructions,164518.0,0.0-3.0-0.0,"[{""page_index"":0,""viewing_time"":1977}]",1977,2808,,,,,,,,,,,,,,,,,,,
,instructions,25239.0,0.0-1.0-0.0,"[{""page_index"":0,""viewing_time"":1226},{""page_index"":1,""viewing_time"":4992},{""page_index"":2,""viewing_time"":4882},{""page_index"":3,""viewing_time"":4310},{""page_index"":4,""viewing_time"":1624},{""page_index"":5,""viewing_time"":788},{""page_index"":6,""viewing_time"":1215},{""page_index"":7,""viewing_time"":1170}]",20210.0,2809,,,,,,,,,,,,,,,,,,,
,instructions,55541.0,0.0-1.1-0.1,"[{""page_index"":0,""viewing_time"":2277},{""page_index"":1,""viewing_time"":1972},{""page_index"":2,""viewing_time"":1756},{""page_index"":3,""viewing_time"":1773},{""page_index"":4,""viewing_time"":1287},{""page_index"":5,""viewing_time"":796},{""page_index"":6,""viewing_time"":1159},{""page_index"":7,""viewing_time"":1020}]",12041.0,2809,,,,,,,,,,,,,,,,,,,
,instructions,75420.0,0.0-1.2-0.2,"[{""page_index"":0,""viewing_time"":1159},{""page_index"":1,""viewing_time"":2274},{""page_index"":2,""viewing_time"":972},{""page_index"":3,""viewing_time"":894},{""page_index"":4,""viewing_time"":905},{""page_index"":5,""viewing_time"":746},{""page_index"":6,""viewing_time"":1037},{""page_index"":7,""viewing_time"":1243}]",9233.0,2809,,,,,,,,,,,,,,,,,,,
,instructions,143583.0,0.0-1.0-0.0,"[{""page_index"":0,""viewing_time"":9853},{""page_index"":1,""viewing_time"":22418},{""page_index"":2,""viewing_time"":22921},{""page_index"":3,""viewing_time"":12131},{""page_index"":4,""viewing_time"":12482},{""page_index"":5,""viewing_time"":9734},{""page_index"":6,""viewing_time"":18842},{""page_index"":7,""viewing_time"":10121},{""page_index"":6,""viewing_time"":9830},{""page_index"":5,""viewing_time"":4332},{""page_index"":6,""viewing_time"":1617},{""page_index"":7,""viewing_time"":4149}]",138431,2810,,,,,,,,,,,,,,,,,,,
,instructions,230532.0,0.0-1.1-0.1,"[{""page_index"":0,""viewing_time"":6270},{""page_index"":1,""viewing_time"":8435},{""page_index"":2,""viewing_time"":15346},{""page_index"":3,""viewing_time"":5487},{""page_index"":4,""viewing_time"":3156},{""page_index"":5,""viewing_time"":1248},{""page_index"":6,""viewing_time"":2194},{""page_index"":7,""viewing_time"":1654}]",43790,2810,,,,,,,,,,,,,,,,,,,
,instructions,306996.0,0.0-3.0-0.0,"[{""page_index"":0,""viewing_time"":57938}]",57938,2810,,,,,,,,,,,,,,,,,,,
,instructions,98559.0,0.0-1.0-0.0,"[{""page_index"":0,""viewing_time"":3642},{""page_index"":1,""viewing_time"":14875},{""page_index"":2,""viewing_time"":1066},{""page_index"":3,""viewing_time"":3227},{""page_index"":2,""viewing_time"":13647},{""page_index"":3,""viewing_time"":8235},{""page_index"":4,""viewing_time"":8426},{""page_index"":5,""viewing_time"":7470},{""page_index"":6,""viewing_time"":25381},{""page_index"":7,""viewing_time"":6750}]",92719.0,2429,,,,,,,,,,,,,,,,,,,
,instructions,64096.0,0.0-1.0-0.0,"[{""page_index"":0,""viewing_time"":6908},{""page_index"":1,""viewing_time"":12698},{""page_index"":2,""viewing_time"":17410},{""page_index"":3,""viewing_time"":6031},{""page_index"":4,""viewing_time"":5029},{""page_index"":5,""viewing_time"":6571},{""page_index"":6,""viewing_time"":3997},{""page_index"":7,""viewing_time"":1950}]",60596.0,2376,,,,,,,,,,,,,,,,,,,
,instructions,152090.0,0.0-1.0-0.0,"[{""page_index"":0,""viewing_time"":10267},{""page_index"":1,""viewing_time"":24208},{""page_index"":2,""viewing_time"":22479},{""page_index"":3,""viewing_time"":18665},{""page_index"":4,""viewing_time"":15800},{""page_index"":5,""viewing_time"":25721},{""page_index"":6,""viewing_time"":15424},{""page_index"":7,""viewing_time"":6111}]",138676,2747,,,,,,,,,,,,,,,,,,,
,instructions,220625.0,0.0-3.0-0.0,"[{""page_index"":0,""viewing_time"":11134}]",11134,2747,,,,,,,,,,,,,,,,,,,
,instructions,125356.0,0.0-1.0-0.0,"[{""page_index"":0,""viewing_time"":7512},{""page_index"":1,""viewing_time"":47734},{""page_index"":2,""viewing_time"":23547},{""page_index"":3,""viewing_time"":10935},{""page_index"":4,""viewing_time"":8295},{""page_index"":5,""viewing_time"":1506},{""page_index"":6,""viewing_time"":2726},{""page_index"":7,""viewing_time"":19773}]",122029,2603,,,,,,,,,,,,,,,,,,,
,instructions,332267.0,0.0-1.1-0.1,"[{""page_index"":0,""viewing_time"":3603},{""page_index"":1,""viewing_time"":21793},{""page_index"":2,""viewing_time"":33589},{""page_index"":3,""viewing_time"":11373},{""page_index"":4,""viewing_time"":62008},{""page_index"":5,""viewing_time"":10967},{""page_index"":6,""viewing_time"":11239},{""page_index"":7,""viewing_time"":1960}]",156534,2603,,,,,,,,,,,,,,,,,,,
,instructions,363339.0,0.0-1.2-0.2,"[{""page_index"":0,""viewing_time"":1217},{""page_index"":1,""viewing_time"":1271},{""page_index"":2,""viewing_time"":798},{""page_index"":3,""viewing_time"":1141},{""page_index"":4,""viewing_time"":791},{""page_index"":5,""viewing_time"":534},{""page_index"":6,""viewing_time"":1075},{""page_index"":7,""viewing_time"":1168}]",7996,2603,,,,,,,,,,,,,,,,,,,
,instructions,393362.0,0.0-3.0-0.0,"[{""page_index"":0,""viewing_time"":9341}]",9341,2603,,,,,,,,,,,,,,,,,,,
,instructions,143649.0,0.0-1.0-0.0,"[{""page_index"":0,""viewing_time"":12309},{""page_index"":1,""viewing_time"":19457},{""page_index"":2,""viewing_time"":29828},{""page_index"":3,""viewing_time"":20378},{""page_index"":4,""viewing_time"":14470},{""page_index"":5,""viewing_time"":12424},{""page_index"":6,""viewing_time"":18849},{""page_index"":7,""viewing_time"":9759}]",137476,2482,,,,,,,,,,,,,,,,,,,
,instructions,251894.0,0.0-1.1-0.1,"[{""page_index"":0,""viewing_time"":3210},{""page_index"":1,""viewing_time"":3039},{""page_index"":2,""viewing_time"":3591},{""page_index"":3,""viewing_time"":3989},{""page_index"":4,""viewing_time"":2831},{""page_index"":5,""viewing_time"":9101},{""page_index"":6,""viewing_time"":16091},{""page_index"":7,""viewing_time"":1978}]",43830,2482,,,,,,,,,,,,,,,,,,,
,instructions,288115.0,0.0-3.0-0.0,"[{""page_index"":0,""viewing_time"":16896}]",16896,2482,,,,,,,,,,,,,,,,,,,
,instructions,162134.0,0.0-1.0-0.0,"[{""page_index"":0,""viewing_time"":13973},{""page_index"":1,""viewing_time"":45442},{""page_index"":2,""viewing_time"":74040},{""page_index"":3,""viewing_time"":3892},{""page_index"":4,""viewing_time"":5201},{""page_index"":5,""viewing_time"":5304},{""page_index"":6,""viewing_time"":1781},{""page_index"":7,""viewing_time"":8143}]",157779.0,2446,,,,,,,,,,,,,,,,,,,
,instructions,37449.0,0.0-1.0-0.0,"[{""page_index"":0,""viewing_time"":4043},{""page_index"":1,""viewing_time"":3085},{""page_index"":2,""viewing_time"":3522},{""page_index"":3,""viewing_time"":4284},{""page_index"":4,""viewing_time"":4170},{""page_index"":5,""viewing_time"":4495},{""page_index"":6,""viewing_time"":2994},{""page_index"":7,""viewing_time"":2456}]",29050.0,2811,,,,,,,,,,,,,,,,,,,
,instructions,60065.0,0.0-1.0-0.0,"[{""page_index"":0,""viewing_time"":6359},{""page_index"":1,""viewing_time"":7080},{""page_index"":2,""viewing_time"":8440},{""page_index"":3,""viewing_time"":6744},{""page_index"":4,""viewing_time"":5496},{""page_index"":5,""viewing_time"":7743},{""page_index"":6,""viewing_time"":14041},{""page_index"":7,""viewing_time"":1856}]",57759,2700,,,,,,,,,,,,,,,,,,,
,instructions,81909.0,0.0-3.0-0.0,"[{""page_index"":0,""viewing_time"":3900}]",3900,2700,,,,,,,,,,,,,,,,,,,
,instructions,69197.0,0.0-1.0-0.0,"[{""page_index"":0,""viewing_time"":6825},{""page_index"":1,""viewing_time"":25787},{""page_index"":2,""viewing_time"":3089},{""page_index"":3,""viewing_time"":4566},{""page_index"":4,""viewing_time"":4922},{""page_index"":5,""viewing_time"":7073},{""page_index"":6,""viewing_time"":10021},{""page_index"":7,""viewing_time"":4055}]",66339.0,2701,,,,,,,,,,,,,,,,,,,
,instructions,21346.0,0.0-1.0-0.0,"[{""page_index"":0,""viewing_time"":5085},{""page_index"":1,""viewing_time"":2836},{""page_index"":2,""viewing_time"":2249},{""page_index"":3,""viewing_time"":991},{""page_index"":4,""viewing_time"":847},{""page_index"":5,""viewing_time"":689},{""page_index"":6,""viewing_time"":1275},{""page_index"":7,""viewing_time"":2626}]",16599.0,2689,,,,,,,,,,,,,,,,,,,
,instructions,99557.0,0.0-1.0-0.0,"[{""page_index"":0,""viewing_time"":12633},{""page_index"":1,""viewing_time"":19039},{""page_index"":2,""viewing_time"":16164},{""page_index"":3,""viewing_time"":12100},{""page_index"":4,""viewing_time"":11448},{""page_index"":5,""viewing_time"":7113},{""page_index"":6,""viewing_time"":13476},{""page_index"":7,""viewing_time"":3366}]",95340,2522,,,,,,,,,,,,,,,,,,,
,instructions,142301.0,0.0-1.1-0.1,"[{""page_index"":0,""viewing_time"":1467},{""page_index"":1,""viewing_time"":1490},{""page_index"":2,""viewing_time"":1930},{""page_index"":3,""viewing_time"":4036},{""page_index"":4,""viewing_time"":1754},{""page_index"":5,""viewing_time"":1581},{""page_index"":6,""viewing_time"":5513},{""page_index"":7,""viewing_time"":1394}]",19165,2522,,,,,,,,,,,,,,,,,,,
,instructions,157149.0,0.0-3.0-0.0,"[{""page_index"":0,""viewing_time"":6857}]",6857,2522,,,,,,,,,,,,,,,,,,,
,instructions,363541.0,0.0-1.0-0.0,"[{""page_index"":0,""viewing_time"":11196},{""page_index"":1,""viewing_time"":8671},{""page_index"":2,""viewing_time"":220592},{""page_index"":3,""viewing_time"":3816},{""page_index"":4,""viewing_time"":6152},{""page_index"":5,""viewing_time"":14297},{""page_index"":6,""viewing_time"":87710},{""page_index"":7,""viewing_time"":6633}]",359067.0,2523,,,,,,,,,,,,,,,,,,,
,instructions,71679.0,0.0-1.0-0.0,"[{""page_index"":0,""viewing_time"":4073},{""page_index"":1,""viewing_time"":10950},{""page_index"":2,""viewing_time"":19809},{""page_index"":3,""viewing_time"":6420},{""page_index"":4,""viewing_time"":4280},{""page_index"":5,""viewing_time"":7136},{""page_index"":6,""viewing_time"":10996},{""page_index"":7,""viewing_time"":4508}]",68173.0,2513,,,,,,,,,,,,,,,,,,,
,instructions,2085849.0,0.0-1.0-0.0,"[{""page_index"":0,""viewing_time"":5732},{""page_index"":1,""viewing_time"":6486},{""page_index"":2,""viewing_time"":8532},{""page_index"":3,""viewing_time"":3001},{""page_index"":4,""viewing_time"":3560},{""page_index"":5,""viewing_time"":4018},{""page_index"":6,""viewing_time"":10627},{""page_index"":7,""viewing_time"":1269}]",43225.0,2409,,,,,,,,,,,,,,,,,,,
,instructions,2108667.0,0.0-3.0-0.0,"[{""page_index"":0,""viewing_time"":4359}]",4359.0,2409,,,,,,,,,,,,,,,,,,,
,instructions,123715.0,0.0-1.0-0.0,"[{""page_index"":0,""viewing_time"":7545},{""page_index"":1,""viewing_time"":18791},{""page_index"":2,""viewing_time"":27400},{""page_index"":3,""viewing_time"":13403},{""page_index"":4,""viewing_time"":12734},{""page_index"":5,""viewing_time"":14468},{""page_index"":6,""viewing_time"":13691},{""page_index"":7,""viewing_time"":10283}]",118316.0,2359,,,,,,,,,,,,,,,,,,,
,instructions,77863.0,0.0-1.0-0.0,"[{""page_index"":0,""viewing_time"":6762},{""page_index"":1,""viewing_time"":8136},{""page_index"":2,""viewing_time"":9832},{""page_index"":3,""viewing_time"":7655},{""page_index"":4,""viewing_time"":8369},{""page_index"":5,""viewing_time"":11456},{""page_index"":6,""viewing_time"":11943},{""page_index"":7,""viewing_time"":2945}]",67099.0,2748,,,,,,,,,,,,,,,,,,,
,instructions,114550.0,0.0-3.0-0.0,"[{""page_index"":0,""viewing_time"":13991}]",13991.0,2748,,,,,,,,,,,,,,,,,,,
,instructions,122146.0,0.0-1.0-0.0,"[{""page_index"":0,""viewing_time"":10568},{""page_index"":1,""viewing_time"":24323},{""page_index"":2,""viewing_time"":24295},{""page_index"":3,""viewing_time"":12482},{""page_index"":4,""viewing_time"":9433},{""page_index"":5,""viewing_time"":10344},{""page_index"":6,""viewing_time"":16228},{""page_index"":7,""viewing_time"":9079}]",116755.0,2804,,,,,,,,,,,,,,,,,,,
,instructions,89848.0,0.0-1.0-0.0,"[{""page_index"":0,""viewing_time"":7894},{""page_index"":1,""viewing_time"":18496},{""page_index"":2,""viewing_time"":22217},{""page_index"":3,""viewing_time"":7416},{""page_index"":4,""viewing_time"":3248},{""page_index"":5,""viewing_time"":4345},{""page_index"":6,""viewing_time"":14824},{""page_index"":7,""viewing_time"":4977}]",83419.0,2615,,,,,,,,,,,,,,,,,,,
,instructions,145953.0,0.0-1.1-0.1,"[{""page_index"":0,""viewing_time"":2974},{""page_index"":1,""viewing_time"":7537},{""page_index"":2,""viewing_time"":7456},{""page_index"":3,""viewing_time"":3360},{""page_index"":4,""viewing_time"":2512},{""page_index"":5,""viewing_time"":2296},{""page_index"":6,""viewing_time"":1448},{""page_index"":7,""viewing_time"":1320}]",28904.0,2615,,,,,,,,,,,,,,,,,,,
,instructions,92996.0,0.0-1.0-0.0,"[{""page_index"":0,""viewing_time"":5452},{""page_index"":1,""viewing_time"":26761},{""page_index"":2,""viewing_time"":19414},{""page_index"":3,""viewing_time"":7250},{""page_index"":4,""viewing_time"":9319},{""page_index"":5,""viewing_time"":11233},{""page_index"":6,""viewing_time"":6258},{""page_index"":7,""viewing_time"":4183}]",89870,2524,,,,,,,,,,,,,,,,,,,
,instructions,123331.0,0.0-3.0-0.0,"[{""page_index"":0,""viewing_time"":7654}]",7655,2524,,,,,,,,,,,,,,,,,,,
,instructions,113837.0,0.0-1.0-0.0,"[{""page_index"":0,""viewing_time"":2953},{""page_index"":1,""viewing_time"":22310},{""page_index"":2,""viewing_time"":25930},{""page_index"":3,""viewing_time"":13760},{""page_index"":4,""viewing_time"":12794},{""page_index"":5,""viewing_time"":12011},{""page_index"":6,""viewing_time"":17923},{""page_index"":7,""viewing_time"":2961}]",110643.0,2508,,,,,,,,,,,,,,,,,,,
,instructions,236181.0,0.0-1.1-0.1,"[{""page_index"":0,""viewing_time"":7437},{""page_index"":1,""viewing_time"":9609},{""page_index"":2,""viewing_time"":9546},{""page_index"":3,""viewing_time"":7876},{""page_index"":4,""viewing_time"":10698},{""page_index"":5,""viewing_time"":9578},{""page_index"":6,""viewing_time"":13499},{""page_index"":7,""viewing_time"":1831}]",70074.0,2508,,,,,,,,,,,,,,,,,,,
,instructions,284147.0,0.0-1.2-0.2,"[{""page_index"":0,""viewing_time"":1230},{""page_index"":1,""viewing_time"":1722},{""page_index"":2,""viewing_time"":1100},{""page_index"":3,""viewing_time"":1239},{""page_index"":4,""viewing_time"":1451},{""page_index"":5,""viewing_time"":1116},{""page_index"":6,""viewing_time"":1458},{""page_index"":7,""viewing_time"":1318}]",10634.0,2508,,,,,,,,,,,,,,,,,,,
,instructions,272661.0,0.0-1.0-0.0,"[{""page_index"":0,""viewing_time"":13935},{""page_index"":1,""viewing_time"":70677},{""page_index"":2,""viewing_time"":80133},{""page_index"":3,""viewing_time"":18303},{""page_index"":4,""viewing_time"":13735},{""page_index"":5,""viewing_time"":13784},{""page_index"":6,""viewing_time"":34086},{""page_index"":7,""viewing_time"":17568}]",262227.0,2750,,,,,,,,,,,,,,,,,,,
,instructions,540424.0,0.0-1.1-0.1,"[{""page_index"":0,""viewing_time"":20017},{""page_index"":1,""viewing_time"":20487},{""page_index"":2,""viewing_time"":27344},{""page_index"":3,""viewing_time"":13894},{""page_index"":4,""viewing_time"":15144},{""page_index"":5,""viewing_time"":22703},{""page_index"":6,""viewing_time"":54214},{""page_index"":7,""viewing_time"":10791}]",184599.0,2750,,,,,,,,,,,,,,,,,,,
,instructions,888194.0,0.0-1.2-0.2,"[{""page_index"":0,""viewing_time"":11027},{""page_index"":1,""viewing_time"":14519},{""page_index"":0,""viewing_time"":10360},{""page_index"":1,""viewing_time"":24742},{""page_index"":2,""viewing_time"":28103},{""page_index"":3,""viewing_time"":11824},{""page_index"":4,""viewing_time"":25207},{""page_index"":5,""viewing_time"":15559},{""page_index"":6,""viewing_time"":62694},{""page_index"":7,""viewing_time"":12855}]",216894.0,2750,,,,,,,,,,,,,,,,,,,
,instructions,1024210.0,0.0-3.0-0.0,"[{""page_index"":0,""viewing_time"":53971}]",53972.0,2750,,,,,,,,,,,,,,,,,,,
,instructions,137328.0,0.0-1.0-0.0,"[{""page_index"":0,""viewing_time"":7480},{""page_index"":1,""viewing_time"":29742},{""page_index"":2,""viewing_time"":31536},{""page_index"":3,""viewing_time"":13752},{""page_index"":4,""viewing_time"":10294},{""page_index"":5,""viewing_time"":11952},{""page_index"":6,""viewing_time"":20672},{""page_index"":7,""viewing_time"":7335}]",132764.0,2525,,,,,,,,,,,,,,,,,,,
,instructions,476403.0,0.0-1.1-0.1,"[{""page_index"":0,""viewing_time"":167902},{""page_index"":1,""viewing_time"":17007},{""page_index"":2,""viewing_time"":26367},{""page_index"":3,""viewing_time"":4567},{""page_index"":4,""viewing_time"":785},{""page_index"":5,""viewing_time"":640},{""page_index"":6,""viewing_time"":1719},{""page_index"":7,""viewing_time"":1472}]",220460.0,2525,,,,,,,,,,,,,,,,,,,
,instructions,108602.0,0.0-1.0-0.0,"[{""page_index"":0,""viewing_time"":5736},{""page_index"":1,""viewing_time"":9391},{""page_index"":2,""viewing_time"":10296},{""page_index"":3,""viewing_time"":1328},{""page_index"":4,""viewing_time"":3368},{""page_index"":5,""viewing_time"":2352},{""page_index"":6,""viewing_time"":41880},{""page_index"":7,""viewing_time"":4304}]",78656.0,2493,,,,,,,,,,,,,,,,,,,
,instructions,211977.0,0.0-1.1-0.1,"[{""page_index"":0,""viewing_time"":3258},{""page_index"":1,""viewing_time"":11624},{""page_index"":2,""viewing_time"":10376},{""page_index"":3,""viewing_time"":11095},{""page_index"":4,""viewing_time"":1256},{""page_index"":5,""viewing_time"":2328},{""page_index"":6,""viewing_time"":3528},{""page_index"":7,""viewing_time"":1680}]",45146.0,2493,,,,,,,,,,,,,,,,,,,
,instructions,242557.0,0.0-3.0-0.0,"[{""page_index"":0,""viewing_time"":11944}]",11944.0,2493,,,,,,,,,,,,,,,,,,,
,instructions,104540.0,0.0-1.0-0.0,"[{""page_index"":0,""viewing_time"":9457},{""page_index"":1,""viewing_time"":13375},{""page_index"":2,""viewing_time"":11162},{""page_index"":3,""viewing_time"":31015},{""page_index"":4,""viewing_time"":13334},{""page_index"":5,""viewing_time"":5677},{""page_index"":6,""viewing_time"":6092},{""page_index"":7,""viewing_time"":6832}]",96945,2410,,,,,,,,,,,,,,,,,,,
,instructions,170283.0,0.0-1.1-0.1,"[{""page_index"":0,""viewing_time"":3407},{""page_index"":1,""viewing_time"":4010},{""page_index"":2,""viewing_time"":10000},{""page_index"":3,""viewing_time"":5638},{""page_index"":4,""viewing_time"":3675},{""page_index"":5,""viewing_time"":2401},{""page_index"":6,""viewing_time"":5712},{""page_index"":7,""viewing_time"":2390}]",37234,2410,,,,,,,,,,,,,,,,,,,
,instructions,205437.0,0.0-3.0-0.0,"[{""page_index"":0,""viewing_time"":27289}]",27289,2410,,,,,,,,,,,,,,,,,,,
,instructions,125668.0,0.0-1.0-0.0,"[{""page_index"":0,""viewing_time"":23203},{""page_index"":1,""viewing_time"":23581},{""page_index"":2,""viewing_time"":38379},{""page_index"":3,""viewing_time"":5336},{""page_index"":4,""viewing_time"":9954},{""page_index"":5,""viewing_time"":4864},{""page_index"":6,""viewing_time"":6898},{""page_index"":7,""viewing_time"":3109}]",115325.0,2751,,,,,,,,,,,,,,,,,,,
,instructions,135592.0,0.0-1.0-0.0,"[{""page_index"":0,""viewing_time"":11021},{""page_index"":1,""viewing_time"":24733},{""page_index"":2,""viewing_time"":26646},{""page_index"":3,""viewing_time"":12426},{""page_index"":4,""viewing_time"":1803},{""page_index"":3,""viewing_time"":3959},{""page_index"":4,""viewing_time"":12075},{""page_index"":5,""viewing_time"":14220},{""page_index"":6,""viewing_time"":12156},{""page_index"":7,""viewing_time"":9890}]",128931.0,2617,,,,,,,,,,,,,,,,,,,
,instructions,230073.0,0.0-1.1-0.1,"[{""page_index"":0,""viewing_time"":2842},{""page_index"":1,""viewing_time"":3006},{""page_index"":2,""viewing_time"":4962},{""page_index"":3,""viewing_time"":13482},{""page_index"":4,""viewing_time"":6374},{""page_index"":5,""viewing_time"":3167},{""page_index"":6,""viewing_time"":9550},{""page_index"":7,""viewing_time"":1263}]",44647.0,2617,,,,,,,,,,,,,,,,,,,
,instructions,104742.0,0.0-1.0-0.0,"[{""page_index"":0,""viewing_time"":4901},{""page_index"":1,""viewing_time"":32992},{""page_index"":2,""viewing_time"":22358},{""page_index"":3,""viewing_time"":5745},{""page_index"":4,""viewing_time"":13488},{""page_index"":5,""viewing_time"":15442},{""page_index"":6,""viewing_time"":4810},{""page_index"":7,""viewing_time"":1694}]",101431,2618,,,,,,,,,,,,,,,,,,,
,instructions,452443.0,0.0-3.0-0.0,"[{""page_index"":0,""viewing_time"":23629}]",23629,2618,,,,,,,,,,,,,,,,,,,
,instructions,98336.0,0.0-1.0-0.0,"[{""page_index"":0,""viewing_time"":5487},{""page_index"":1,""viewing_time"":19133},{""page_index"":2,""viewing_time"":22284},{""page_index"":3,""viewing_time"":6301},{""page_index"":4,""viewing_time"":9399},{""page_index"":5,""viewing_time"":10386},{""page_index"":6,""viewing_time"":16599},{""page_index"":7,""viewing_time"":4583}]",94174.0,2527,,,,,,,,,,,,,,,,,,,
,instructions,184154.0,0.0-1.1-0.1,"[{""page_index"":0,""viewing_time"":3277},{""page_index"":1,""viewing_time"":4600},{""page_index"":2,""viewing_time"":7818},{""page_index"":3,""viewing_time"":7984},{""page_index"":4,""viewing_time"":5348},{""page_index"":5,""viewing_time"":4586},{""page_index"":6,""viewing_time"":2465},{""page_index"":5,""viewing_time"":3183},{""page_index"":6,""viewing_time"":11933},{""page_index"":7,""viewing_time"":1585}]",52780.0,2527,,,,,,,,,,,,,,,,,,,
,instructions,88330.0,0.0-1.0-0.0,"[{""page_index"":0,""viewing_time"":7716},{""page_index"":1,""viewing_time"":13201},{""page_index"":2,""viewing_time"":18048},{""page_index"":3,""viewing_time"":8706},{""page_index"":4,""viewing_time"":8608},{""page_index"":5,""viewing_time"":7705},{""page_index"":6,""viewing_time"":13346},{""page_index"":7,""viewing_time"":7904}]",85235,2462,,,,,,,,,,,,,,,,,,,
,instructions,215093.0,0.0-1.1-0.1,"[{""page_index"":0,""viewing_time"":4798},{""page_index"":1,""viewing_time"":8321},{""page_index"":2,""viewing_time"":24571},{""page_index"":3,""viewing_time"":13049},{""page_index"":4,""viewing_time"":6649},{""page_index"":5,""viewing_time"":7034},{""page_index"":6,""viewing_time"":15837},{""page_index"":7,""viewing_time"":7913}]",88172,2462,,,,,,,,,,,,,,,,,,,
,instructions,338138.0,0.0-1.2-0.2,"[{""page_index"":0,""viewing_time"":5997},{""page_index"":1,""viewing_time"":19578},{""page_index"":2,""viewing_time"":22720},{""page_index"":3,""viewing_time"":14426},{""page_index"":4,""viewing_time"":5512},{""page_index"":5,""viewing_time"":4609},{""page_index"":6,""viewing_time"":15338},{""page_index"":7,""viewing_time"":2313}]",90494,2462,,,,,,,,,,,,,,,,,,,
,instructions,362736.0,0.0-3.0-0.0,"[{""page_index"":0,""viewing_time"":10489}]",10489,2462,,,,,,,,,,,,,,,,,,,
,instructions,146447.0,0.0-1.0-0.0,"[{""page_index"":0,""viewing_time"":11968},{""page_index"":1,""viewing_time"":28311},{""page_index"":2,""viewing_time"":27415},{""page_index"":3,""viewing_time"":17989},{""page_index"":4,""viewing_time"":9012},{""page_index"":5,""viewing_time"":10686},{""page_index"":6,""viewing_time"":19414},{""page_index"":7,""viewing_time"":15180}]",139978.0,2377,,,,,,,,,,,,,,,,,,,
,instructions,328484.0,0.0-1.1-0.1,"[{""page_index"":0,""viewing_time"":4566},{""page_index"":1,""viewing_time"":20101},{""page_index"":2,""viewing_time"":25196},{""page_index"":3,""viewing_time"":16950},{""page_index"":4,""viewing_time"":15600},{""page_index"":5,""viewing_time"":16658},{""page_index"":6,""viewing_time"":22273},{""page_index"":7,""viewing_time"":4773}]",126121.0,2377,,,,,,,,,,,,,,,,,,,
,instructions,69308.0,0.0-1.0-0.0,"[{""page_index"":0,""viewing_time"":9744},{""page_index"":1,""viewing_time"":16712},{""page_index"":2,""viewing_time"":7672},{""page_index"":3,""viewing_time"":4704},{""page_index"":4,""viewing_time"":7640},{""page_index"":5,""viewing_time"":7016},{""page_index"":6,""viewing_time"":7280},{""page_index"":7,""viewing_time"":1800}]",62569.0,2712,,,,,,,,,,,,,,,,,,,
,instructions,60715.0,0.0-1.0-0.0,"[{""page_index"":0,""viewing_time"":915},{""page_index"":1,""viewing_time"":14166},{""page_index"":2,""viewing_time"":14222},{""page_index"":3,""viewing_time"":7492},{""page_index"":4,""viewing_time"":8529},{""page_index"":5,""viewing_time"":5560},{""page_index"":6,""viewing_time"":3360},{""page_index"":7,""viewing_time"":2760}]",57004,2702,,,,,,,,,,,,,,,,,,,
,instructions,83456.0,0.0-3.0-0.0,"[{""page_index"":0,""viewing_time"":2621}]",2621,2702,,,,,,,,,,,,,,,,,,,
,instructions,32659.0,0.0-1.0-0.0,"[{""page_index"":0,""viewing_time"":3004},{""page_index"":1,""viewing_time"":3757},{""page_index"":2,""viewing_time"":2105},{""page_index"":3,""viewing_time"":1464},{""page_index"":4,""viewing_time"":4026},{""page_index"":5,""viewing_time"":1297},{""page_index"":6,""viewing_time"":7841},{""page_index"":7,""viewing_time"":5626}]",29120.0,2619,,,,,,,,,,,,,,,,,,,
,instructions,141644.0,0.0-1.1-0.1,"[{""page_index"":0,""viewing_time"":14964},{""page_index"":1,""viewing_time"":11405},{""page_index"":2,""viewing_time"":11998},{""page_index"":3,""viewing_time"":4959},{""page_index"":2,""viewing_time"":4816},{""page_index"":3,""viewing_time"":2772},{""page_index"":4,""viewing_time"":4482},{""page_index"":5,""viewing_time"":2165},{""page_index"":6,""viewing_time"":4071},{""page_index"":7,""viewing_time"":2868}]",64500.0,2619,,,,,,,,,,,,,,,,,,,
,instructions,209037.0,0.0-1.0-0.0,"[{""page_index"":0,""viewing_time"":16121},{""page_index"":1,""viewing_time"":28108},{""page_index"":2,""viewing_time"":71792},{""page_index"":3,""viewing_time"":15648},{""page_index"":4,""viewing_time"":13536},{""page_index"":5,""viewing_time"":16760},{""page_index"":6,""viewing_time"":21026},{""page_index"":7,""viewing_time"":15468}]",198460.0,976,,,,,,,,,,,,,,,,,,,
,instructions,300312.0,0.0-3.0-0.0,"[{""page_index"":0,""viewing_time"":50604}]",50604.0,976,,,,,,,,,,,,,,,,,,,
,instructions,152345.0,0.0-1.0-0.0,"[{""page_index"":0,""viewing_time"":11075},{""page_index"":1,""viewing_time"":32303},{""page_index"":2,""viewing_time"":31387},{""page_index"":3,""viewing_time"":15418},{""page_index"":4,""viewing_time"":13580},{""page_index"":5,""viewing_time"":9848},{""page_index"":6,""viewing_time"":21064},{""page_index"":7,""viewing_time"":12073}]",146749.0,2752,,,,,,,,,,,,,,,,,,,
,instructions,259877.0,0.0-1.1-0.1,"[{""page_index"":0,""viewing_time"":3631},{""page_index"":1,""viewing_time"":7779},{""page_index"":2,""viewing_time"":18192},{""page_index"":3,""viewing_time"":4396},{""page_index"":4,""viewing_time"":9789},{""page_index"":5,""viewing_time"":1323},{""page_index"":6,""viewing_time"":2180},{""page_index"":7,""viewing_time"":1864}]",49154.0,2752,,,,,,,,,,,,,,,,,,,
,instructions,303794.0,0.0-3.0-0.0,"[{""page_index"":0,""viewing_time"":15650}]",15650.0,2752,,,,,,,,,,,,,,,,,,,
,instructions,125397.0,0.0-1.0-0.0,"[{""page_index"":0,""viewing_time"":11154},{""page_index"":1,""viewing_time"":21818},{""page_index"":2,""viewing_time"":21153},{""page_index"":3,""viewing_time"":13569},{""page_index"":4,""viewing_time"":10028},{""page_index"":5,""viewing_time"":9260},{""page_index"":6,""viewing_time"":19703},{""page_index"":7,""viewing_time"":11708}]",118395,2690,,,,,,,,,,,,,,,,,,,
,instructions,167856.0,0.0-3.0-0.0,"[{""page_index"":0,""viewing_time"":11242}]",11243,2690,,,,,,,,,,,,,,,,,,,
,instructions,63559.0,0.0-1.0-0.0,"[{""page_index"":0,""viewing_time"":5241},{""page_index"":1,""viewing_time"":8912},{""page_index"":2,""viewing_time"":13776},{""page_index"":3,""viewing_time"":6256},{""page_index"":4,""viewing_time"":6216},{""page_index"":5,""viewing_time"":6888},{""page_index"":6,""viewing_time"":8280},{""page_index"":7,""viewing_time"":4976}]",60546,2500,,,,,,,,,,,,,,,,,,,
,instructions,83137.0,0.0-3.0-0.0,"[{""page_index"":0,""viewing_time"":6884}]",6884,2500,,,,,,,,,,,,,,,,,,,
,instructions,106783.0,0.0-1.0-0.0,"[{""page_index"":0,""viewing_time"":6234},{""page_index"":1,""viewing_time"":15129},{""page_index"":2,""viewing_time"":16328},{""page_index"":3,""viewing_time"":9065},{""page_index"":4,""viewing_time"":10290},{""page_index"":5,""viewing_time"":9109},{""page_index"":6,""viewing_time"":28299},{""page_index"":7,""viewing_time"":9450}]",103905.0,860,,,,,,,,,,,,,,,,,,,
,instructions,86633.0,0.0-1.0-0.0,"[{""page_index"":0,""viewing_time"":8356},{""page_index"":1,""viewing_time"":13667},{""page_index"":2,""viewing_time"":38464},{""page_index"":3,""viewing_time"":5839},{""page_index"":4,""viewing_time"":3330},{""page_index"":5,""viewing_time"":8496},{""page_index"":6,""viewing_time"":3355},{""page_index"":7,""viewing_time"":2160}]",83668.0,2713,,,,,,,,,,,,,,,,,,,
,instructions,50566.0,0.0-1.0-0.0,"[{""page_index"":0,""viewing_time"":6347},{""page_index"":1,""viewing_time"":10456},{""page_index"":2,""viewing_time"":5551},{""page_index"":3,""viewing_time"":2793},{""page_index"":2,""viewing_time"":8151},{""page_index"":3,""viewing_time"":2097},{""page_index"":4,""viewing_time"":5328},{""page_index"":5,""viewing_time"":2736},{""page_index"":6,""viewing_time"":2664},{""page_index"":7,""viewing_time"":1985}]",48109.0,2714,,,,,,,,,,,,,,,,,,,
,instructions,118021.0,0.0-1.1-0.1,"[{""page_index"":0,""viewing_time"":3690},{""page_index"":1,""viewing_time"":2913},{""page_index"":2,""viewing_time"":6478},{""page_index"":3,""viewing_time"":6000},{""page_index"":4,""viewing_time"":3345},{""page_index"":5,""viewing_time"":6640},{""page_index"":6,""viewing_time"":1361},{""page_index"":7,""viewing_time"":1439}]",31866.0,2714,,,,,,,,,,,,,,,,,,,
,instructions,222689.0,0.0-1.0-0.0,"[{""page_index"":0,""viewing_time"":9521},{""page_index"":1,""viewing_time"":37535},{""page_index"":2,""viewing_time"":63554},{""page_index"":3,""viewing_time"":9056},{""page_index"":4,""viewing_time"":6221},{""page_index"":5,""viewing_time"":8697},{""page_index"":6,""viewing_time"":21041},{""page_index"":7,""viewing_time"":63077}]",218704.0,2620,,,,,,,,,,,,,,,,,,,
,instructions,520602.0,0.0-1.1-0.1,"[{""page_index"":0,""viewing_time"":4888},{""page_index"":1,""viewing_time"":85607},{""page_index"":2,""viewing_time"":38199},{""page_index"":3,""viewing_time"":62244},{""page_index"":4,""viewing_time"":31789},{""page_index"":5,""viewing_time"":21749},{""page_index"":6,""viewing_time"":6903},{""page_index"":7,""viewing_time"":2076}]",253458.0,2620,,,,,,,,,,,,,,,,,,,
,instructions,718834.0,0.0-1.2-0.2,"[{""page_index"":0,""viewing_time"":5273},{""page_index"":1,""viewing_time"":4286},{""page_index"":2,""viewing_time"":6251},{""page_index"":3,""viewing_time"":4345},{""page_index"":4,""viewing_time"":1986},{""page_index"":5,""viewing_time"":18745},{""page_index"":6,""viewing_time"":19915},{""page_index"":7,""viewing_time"":6636}]",67438.0,2620,,,,,,,,,,,,,,,,,,,
,instructions,264947.0,0.0-1.0-0.0,"[{""page_index"":0,""viewing_time"":22196},{""page_index"":1,""viewing_time"":41879},{""page_index"":2,""viewing_time"":57192},{""page_index"":3,""viewing_time"":21776},{""page_index"":4,""viewing_time"":30216},{""page_index"":5,""viewing_time"":20304},{""page_index"":6,""viewing_time"":36833},{""page_index"":7,""viewing_time"":22631}]",253027.0,2600,,,,,,,,,,,,,,,,,,,
,instructions,382780.0,0.0-1.1-0.1,"[{""page_index"":0,""viewing_time"":13240},{""page_index"":1,""viewing_time"":7122},{""page_index"":2,""viewing_time"":12703},{""page_index"":3,""viewing_time"":6296},{""page_index"":4,""viewing_time"":3920},{""page_index"":5,""viewing_time"":2200},{""page_index"":6,""viewing_time"":2791},{""page_index"":7,""viewing_time"":1577}]",49850.0,2600,,,,,,,,,,,,,,,,,,,
,instructions,429265.0,0.0-3.0-0.0,"[{""page_index"":0,""viewing_time"":20571}]",20571.0,2600,,,,,,,,,,,,,,,,,,,
,instructions,110805.0,0.0-1.0-0.0,"[{""page_index"":0,""viewing_time"":9062},{""page_index"":1,""viewing_time"":18013},{""page_index"":2,""viewing_time"":21124},{""page_index"":3,""viewing_time"":11118},{""page_index"":4,""viewing_time"":10007},{""page_index"":5,""viewing_time"":8494},{""page_index"":6,""viewing_time"":15656},{""page_index"":7,""viewing_time"":11354}]",104829,2451,,,,,,,,,,,,,,,,,,,
,instructions,228885.0,0.0-1.1-0.1,"[{""page_index"":0,""viewing_time"":3514},{""page_index"":1,""viewing_time"":14209},{""page_index"":2,""viewing_time"":19211},{""page_index"":3,""viewing_time"":14061},{""page_index"":4,""viewing_time"":5011},{""page_index"":5,""viewing_time"":9953},{""page_index"":6,""viewing_time"":22773},{""page_index"":7,""viewing_time"":2687}]",91420,2451,,,,,,,,,,,,,,,,,,,
,instructions,261116.0,0.0-3.0-0.0,"[{""page_index"":0,""viewing_time"":14623}]",14623,2451,,,,,,,,,,,,,,,,,,,
,instructions,863877.0,0.0-3.0-4.0,"[{""page_index"":0,""viewing_time"":6894}]",6895,2451,,,,,,,,,,,,,,,,,,,
,instructions,138338.0,0.0-1.0-0.0,"[{""page_index"":0,""viewing_time"":17114},{""page_index"":1,""viewing_time"":42539},{""page_index"":2,""viewing_time"":9993},{""page_index"":3,""viewing_time"":2305},{""page_index"":4,""viewing_time"":23213},{""page_index"":5,""viewing_time"":9513},{""page_index"":6,""viewing_time"":16665},{""page_index"":7,""viewing_time"":6462}]",127805.0,2421,,,,,,,,,,,,,,,,,,,
,instructions,303975.0,0.0-1.0-0.0,"[{""page_index"":0,""viewing_time"":24679},{""page_index"":1,""viewing_time"":46310},{""page_index"":0,""viewing_time"":2740},{""page_index"":1,""viewing_time"":10807},{""page_index"":2,""viewing_time"":53629},{""page_index"":3,""viewing_time"":19237},{""page_index"":4,""viewing_time"":21640},{""page_index"":5,""viewing_time"":23192},{""page_index"":6,""viewing_time"":44733},{""page_index"":7,""viewing_time"":20257}]",267225.0,2401,,,,,,,,,,,,,,,,,,,
,instructions,512751.0,0.0-1.1-0.1,"[{""page_index"":0,""viewing_time"":10576},{""page_index"":1,""viewing_time"":14169},{""page_index"":2,""viewing_time"":18685},{""page_index"":3,""viewing_time"":8671},{""page_index"":4,""viewing_time"":9660},{""page_index"":5,""viewing_time"":11913},{""page_index"":6,""viewing_time"":12344},{""page_index"":7,""viewing_time"":3512}]",89531.0,2401,,,,,,,,,,,,,,,,,,,
,instructions,26969.0,0.0-1.0-0.0,"[{""page_index"":0,""viewing_time"":6087},{""page_index"":1,""viewing_time"":2144},{""page_index"":2,""viewing_time"":4299},{""page_index"":3,""viewing_time"":1803},{""page_index"":4,""viewing_time"":2356},{""page_index"":5,""viewing_time"":784},{""page_index"":6,""viewing_time"":1970},{""page_index"":7,""viewing_time"":3334}]",22779.0,2812,,,,,,,,,,,,,,,,,,,
,instructions,174326.0,0.0-1.0-0.0,"[{""page_index"":0,""viewing_time"":22156},{""page_index"":1,""viewing_time"":41711},{""page_index"":2,""viewing_time"":33529},{""page_index"":3,""viewing_time"":13096},{""page_index"":4,""viewing_time"":12248},{""page_index"":5,""viewing_time"":10264},{""page_index"":6,""viewing_time"":19167},{""page_index"":7,""viewing_time"":10712}]",162885.0,2813,,,,,,,,,,,,,,,,,,,
,instructions,250805.0,0.0-1.1-0.1,"[{""page_index"":0,""viewing_time"":1699},{""page_index"":1,""viewing_time"":2257},{""page_index"":2,""viewing_time"":935},{""page_index"":3,""viewing_time"":1648},{""page_index"":4,""viewing_time"":1256},{""page_index"":5,""viewing_time"":1160},{""page_index"":6,""viewing_time"":2144},{""page_index"":7,""viewing_time"":1545}]",12644.0,2813,,,,,,,,,,,,,,,,,,,
,instructions,158939.0,0.0-1.0-0.0,"[{""page_index"":0,""viewing_time"":12340},{""page_index"":1,""viewing_time"":23728},{""page_index"":2,""viewing_time"":34343},{""page_index"":3,""viewing_time"":7215},{""page_index"":4,""viewing_time"":12072},{""page_index"":5,""viewing_time"":13859},{""page_index"":6,""viewing_time"":23340},{""page_index"":7,""viewing_time"":23960}]",150859.0,2753,,,,,,,,,,,,,,,,,,,
,instructions,116716.0,0.0-1.0-0.0,"[{""page_index"":0,""viewing_time"":8373},{""page_index"":1,""viewing_time"":19647},{""page_index"":2,""viewing_time"":20864},{""page_index"":3,""viewing_time"":11464},{""page_index"":4,""viewing_time"":8752},{""page_index"":5,""viewing_time"":9672},{""page_index"":6,""viewing_time"":21920},{""page_index"":7,""viewing_time"":9960}]",110652,2715,,,,,,,,,,,,,,,,,,,
,instructions,208301.0,0.0-3.0-0.0,"[{""page_index"":0,""viewing_time"":14636}]",14636,2715,,,,,,,,,,,,,,,,,,,
,instructions,103482.0,0.0-1.0-0.0,"[{""page_index"":0,""viewing_time"":6066},{""page_index"":1,""viewing_time"":11917},{""page_index"":2,""viewing_time"":2079},{""page_index"":1,""viewing_time"":1139},{""page_index"":2,""viewing_time"":30895},{""page_index"":3,""viewing_time"":7794},{""page_index"":4,""viewing_time"":8045},{""page_index"":5,""viewing_time"":10043},{""page_index"":6,""viewing_time"":11838},{""page_index"":7,""viewing_time"":8898}]",98716.0,2704,,,,,,,,,,,,,,,,,,,
,instructions,156594.0,0.0-1.1-0.1,"[{""page_index"":0,""viewing_time"":2462},{""page_index"":1,""viewing_time"":1828},{""page_index"":2,""viewing_time"":807},{""page_index"":3,""viewing_time"":2421},{""page_index"":4,""viewing_time"":1924},{""page_index"":5,""viewing_time"":4478},{""page_index"":6,""viewing_time"":8857},{""page_index"":7,""viewing_time"":1173}]",23951.0,2704,,,,,,,,,,,,,,,,,,,
,instructions,41939.0,0.0-1.0-0.0,"[{""page_index"":0,""viewing_time"":7223},{""page_index"":1,""viewing_time"":9251},{""page_index"":2,""viewing_time"":4741},{""page_index"":3,""viewing_time"":1625},{""page_index"":4,""viewing_time"":3551},{""page_index"":5,""viewing_time"":5486},{""page_index"":6,""viewing_time"":2543},{""page_index"":7,""viewing_time"":4757}]",39179.0,2529,,,,,,,,,,,,,,,,,,,
,instructions,429973.0,0.0-1.0-0.0,"[{""page_index"":0,""viewing_time"":3843},{""page_index"":1,""viewing_time"":16401},{""page_index"":2,""viewing_time"":33563},{""page_index"":3,""viewing_time"":79320},{""page_index"":4,""viewing_time"":5155},{""page_index"":5,""viewing_time"":4746},{""page_index"":6,""viewing_time"":5804},{""page_index"":7,""viewing_time"":4982}]",153816.0,2814,,,,,,,,,,,,,,,,,,,
,instructions,112925.0,0.0-1.0-0.0,"[{""page_index"":0,""viewing_time"":8940},{""page_index"":1,""viewing_time"":15392},{""page_index"":0,""viewing_time"":3016},{""page_index"":1,""viewing_time"":1868},{""page_index"":2,""viewing_time"":24792},{""page_index"":3,""viewing_time"":8572},{""page_index"":4,""viewing_time"":8856},{""page_index"":5,""viewing_time"":7872},{""page_index"":6,""viewing_time"":12252},{""page_index"":7,""viewing_time"":16052}]",107612.0,2815,,,,,,,,,,,,,,,,,,,
,instructions,216049.0,0.0-1.1-0.1,"[{""page_index"":0,""viewing_time"":5472},{""page_index"":1,""viewing_time"":10997},{""page_index"":2,""viewing_time"":18183},{""page_index"":3,""viewing_time"":9780},{""page_index"":4,""viewing_time"":8372},{""page_index"":5,""viewing_time"":6777},{""page_index"":6,""viewing_time"":4967},{""page_index"":7,""viewing_time"":2128}]",66676.0,2815,,,,,,,,,,,,,,,,,,,
,instructions,337741.0,0.0-1.2-0.2,"[{""page_index"":0,""viewing_time"":10151},{""page_index"":1,""viewing_time"":15816},{""page_index"":2,""viewing_time"":16192},{""page_index"":3,""viewing_time"":7224},{""page_index"":4,""viewing_time"":10328},{""page_index"":5,""viewing_time"":10960},{""page_index"":6,""viewing_time"":10544},{""page_index"":7,""viewing_time"":2348}]",83563.0,2815,,,,,,,,,,,,,,,,,,,
,instructions,290583.0,0.0-1.0-0.0,"[{""page_index"":0,""viewing_time"":6554},{""page_index"":1,""viewing_time"":40575},{""page_index"":2,""viewing_time"":126184},{""page_index"":3,""viewing_time"":9577},{""page_index"":4,""viewing_time"":8279},{""page_index"":5,""viewing_time"":11304},{""page_index"":6,""viewing_time"":11707},{""page_index"":7,""viewing_time"":12418}]",226600,2530,,,,,,,,,,,,,,,,,,,
,instructions,453927.0,0.0-3.0-0.0,"[{""page_index"":0,""viewing_time"":136512}]",136513,2530,,,,,,,,,,,,,,,,,,,
,instructions,68401.0,0.0-1.0-0.0,"[{""page_index"":0,""viewing_time"":6832},{""page_index"":1,""viewing_time"":21472},{""page_index"":2,""viewing_time"":18735},{""page_index"":3,""viewing_time"":4749},{""page_index"":4,""viewing_time"":4729},{""page_index"":5,""viewing_time"":3959},{""page_index"":6,""viewing_time"":3966},{""page_index"":7,""viewing_time"":1360}]",65804.0,2531,,,,,,,,,,,,,,,,,,,
,instructions,126991.0,0.0-1.1-0.1,"[{""page_index"":0,""viewing_time"":1850},{""page_index"":1,""viewing_time"":3127},{""page_index"":2,""viewing_time"":2463},{""page_index"":3,""viewing_time"":2563},{""page_index"":4,""viewing_time"":7075},{""page_index"":5,""viewing_time"":1412},{""page_index"":6,""viewing_time"":1777},{""page_index"":7,""viewing_time"":1179}]",21447.0,2531,,,,,,,,,,,,,,,,,,,
,instructions,89921.0,0.0-1.0-0.0,"[{""page_index"":0,""viewing_time"":7790},{""page_index"":1,""viewing_time"":15263},{""page_index"":2,""viewing_time"":15496},{""page_index"":3,""viewing_time"":10713},{""page_index"":4,""viewing_time"":6967},{""page_index"":5,""viewing_time"":7515},{""page_index"":6,""viewing_time"":10981},{""page_index"":7,""viewing_time"":10314}]",85039,2532,,,,,,,,,,,,,,,,,,,
,instructions,160977.0,0.0-1.1-0.1,"[{""page_index"":0,""viewing_time"":3609},{""page_index"":1,""viewing_time"":3429},{""page_index"":2,""viewing_time"":8572},{""page_index"":3,""viewing_time"":5214},{""page_index"":4,""viewing_time"":3963},{""page_index"":5,""viewing_time"":3403},{""page_index"":6,""viewing_time"":8615},{""page_index"":7,""viewing_time"":3602}]",40408,2532,,,,,,,,,,,,,,,,,,,
,instructions,234313.0,0.0-1.2-0.2,"[{""page_index"":0,""viewing_time"":3297},{""page_index"":1,""viewing_time"":9367},{""page_index"":2,""viewing_time"":9581},{""page_index"":3,""viewing_time"":5115},{""page_index"":4,""viewing_time"":2560},{""page_index"":5,""viewing_time"":2419},{""page_index"":6,""viewing_time"":2010},{""page_index"":7,""viewing_time"":1591}]",35941,2532,,,,,,,,,,,,,,,,,,,
,instructions,264272.0,0.0-3.0-0.0,"[{""page_index"":0,""viewing_time"":8442}]",8442,2532,,,,,,,,,,,,,,,,,,,
,instructions,101556.0,0.0-1.0-0.0,"[{""page_index"":0,""viewing_time"":4814},{""page_index"":1,""viewing_time"":7635},{""page_index"":2,""viewing_time"":11580},{""page_index"":3,""viewing_time"":53085},{""page_index"":4,""viewing_time"":3698},{""page_index"":5,""viewing_time"":10717},{""page_index"":6,""viewing_time"":3682},{""page_index"":7,""viewing_time"":2625}]",97837.0,2444,,,,,,,,,,,,,,,,,,,
,instructions,142449.0,0.0-1.0-0.0,"[{""page_index"":0,""viewing_time"":15412},{""page_index"":1,""viewing_time"":22952},{""page_index"":2,""viewing_time"":28840},{""page_index"":3,""viewing_time"":16000},{""page_index"":4,""viewing_time"":10639},{""page_index"":5,""viewing_time"":20880},{""page_index"":6,""viewing_time"":14504},{""page_index"":7,""viewing_time"":3656}]",132884.0,2622,,,,,,,,,,,,,,,,,,,
,instructions,10764.0,0.0-1.0-0.0,"[{""page_index"":0,""viewing_time"":2141},{""page_index"":1,""viewing_time"":1584},{""page_index"":2,""viewing_time"":792},{""page_index"":3,""viewing_time"":920},{""page_index"":4,""viewing_time"":704},{""page_index"":5,""viewing_time"":608},{""page_index"":6,""viewing_time"":848},{""page_index"":7,""viewing_time"":760}]",8358.0,2458,,,,,,,,,,,,,,,,,,,
,instructions,240326.0,0.0-1.0-0.0,"[{""page_index"":0,""viewing_time"":13387},{""page_index"":1,""viewing_time"":39640},{""page_index"":2,""viewing_time"":55008},{""page_index"":3,""viewing_time"":21760},{""page_index"":4,""viewing_time"":25840},{""page_index"":5,""viewing_time"":17008},{""page_index"":6,""viewing_time"":45744},{""page_index"":7,""viewing_time"":15200}]",233588.0,2379,,,,,,,,,,,,,,,,,,,
,instructions,71801.0,0.0-1.0-0.0,"[{""page_index"":0,""viewing_time"":5894},{""page_index"":1,""viewing_time"":20394},{""page_index"":2,""viewing_time"":6850},{""page_index"":3,""viewing_time"":6366},{""page_index"":4,""viewing_time"":6660},{""page_index"":5,""viewing_time"":9106},{""page_index"":6,""viewing_time"":6165},{""page_index"":7,""viewing_time"":5409}]",66844.0,2533,,,,,,,,,,,,,,,,,,,
,instructions,115329.0,0.0-3.0-0.0,"[{""page_index"":0,""viewing_time"":14586}]",14586.0,2533,,,,,,,,,,,,,,,,,,,
,instructions,78699.0,0.0-1.0-0.0,"[{""page_index"":0,""viewing_time"":5860},{""page_index"":1,""viewing_time"":11651},{""page_index"":2,""viewing_time"":15882},{""page_index"":3,""viewing_time"":6652},{""page_index"":4,""viewing_time"":10971},{""page_index"":5,""viewing_time"":5207},{""page_index"":6,""viewing_time"":5617},{""page_index"":7,""viewing_time"":11014}]",72854,2534,,,,,,,,,,,,,,,,,,,
,instructions,130551.0,0.0-1.1-0.1,"[{""page_index"":0,""viewing_time"":4421},{""page_index"":1,""viewing_time"":5901},{""page_index"":2,""viewing_time"":4781},{""page_index"":3,""viewing_time"":2978},{""page_index"":4,""viewing_time"":1481},{""page_index"":5,""viewing_time"":1457},{""page_index"":6,""viewing_time"":6170},{""page_index"":7,""viewing_time"":1168}]",28357,2534,,,,,,,,,,,,,,,,,,,
,instructions,153069.0,0.0-3.0-0.0,"[{""page_index"":0,""viewing_time"":7912}]",7913,2534,,,,,,,,,,,,,,,,,,,
,instructions,162592.0,0.0-1.0-0.0,"[{""page_index"":0,""viewing_time"":13721},{""page_index"":1,""viewing_time"":38175},{""page_index"":2,""viewing_time"":29249},{""page_index"":3,""viewing_time"":12917},{""page_index"":4,""viewing_time"":10730},{""page_index"":5,""viewing_time"":12062},{""page_index"":6,""viewing_time"":22218},{""page_index"":7,""viewing_time"":14406}]",153479.0,2479,,,,,,,,,,,,,,,,,,,
,instructions,308092.0,0.0-1.1-0.1,"[{""page_index"":0,""viewing_time"":3941},{""page_index"":1,""viewing_time"":13407},{""page_index"":2,""viewing_time"":12166},{""page_index"":3,""viewing_time"":4839},{""page_index"":4,""viewing_time"":2870},{""page_index"":5,""viewing_time"":10785},{""page_index"":6,""viewing_time"":26576},{""page_index"":7,""viewing_time"":6799}]",81384.0,2479,,,,,,,,,,,,,,,,,,,
,instructions,25517.0,0.0-1.0-0.0,"[{""page_index"":0,""viewing_time"":10002},{""page_index"":1,""viewing_time"":3639},{""page_index"":2,""viewing_time"":1240},{""page_index"":3,""viewing_time"":1656},{""page_index"":4,""viewing_time"":976},{""page_index"":5,""viewing_time"":1032},{""page_index"":6,""viewing_time"":1145},{""page_index"":7,""viewing_time"":1015}]",20706.0,2413,,,,,,,,,,,,,,,,,,,
,instructions,119403.0,0.0-1.0-0.0,"[{""page_index"":0,""viewing_time"":10957},{""page_index"":1,""viewing_time"":29434},{""page_index"":2,""viewing_time"":20841},{""page_index"":3,""viewing_time"":13021},{""page_index"":4,""viewing_time"":10521},{""page_index"":5,""viewing_time"":6837},{""page_index"":6,""viewing_time"":13525},{""page_index"":7,""viewing_time"":9308}]",114446,2623,,,,,,,,,,,,,,,,,,,
,instructions,161220.0,0.0-3.0-0.0,"[{""page_index"":0,""viewing_time"":12249}]",12250,2623,,,,,,,,,,,,,,,,,,,
,instructions,140913.0,0.0-1.0-0.0,"[{""page_index"":0,""viewing_time"":7409},{""page_index"":1,""viewing_time"":28735},{""page_index"":2,""viewing_time"":28568},{""page_index"":3,""viewing_time"":25975},{""page_index"":4,""viewing_time"":11393},{""page_index"":5,""viewing_time"":12360},{""page_index"":6,""viewing_time"":16312},{""page_index"":7,""viewing_time"":3736}]",134489.0,2535,,,,,,,,,,,,,,,,,,,
,instructions,290730.0,0.0-1.0-0.0,"[{""page_index"":0,""viewing_time"":20258},{""page_index"":1,""viewing_time"":68278},{""page_index"":2,""viewing_time"":57039},{""page_index"":3,""viewing_time"":26924},{""page_index"":4,""viewing_time"":16537},{""page_index"":5,""viewing_time"":14425},{""page_index"":6,""viewing_time"":47351},{""page_index"":7,""viewing_time"":26896}]",277710.0,2403,,,,,,,,,,,,,,,,,,,
,instructions,136557.0,0.0-1.0-0.0,"[{""page_index"":0,""viewing_time"":11380},{""page_index"":1,""viewing_time"":23135},{""page_index"":2,""viewing_time"":27820},{""page_index"":3,""viewing_time"":14100},{""page_index"":4,""viewing_time"":11569},{""page_index"":5,""viewing_time"":11416},{""page_index"":6,""viewing_time"":18975},{""page_index"":7,""viewing_time"":14350}]",132745.0,187,,,,,,,,,,,,,,,,,,,
,instructions,43526.0,0.0-1.0-0.0,"[{""page_index"":0,""viewing_time"":4199},{""page_index"":1,""viewing_time"":4611},{""page_index"":2,""viewing_time"":4415},{""page_index"":3,""viewing_time"":2734},{""page_index"":4,""viewing_time"":4836},{""page_index"":5,""viewing_time"":12565},{""page_index"":6,""viewing_time"":1498},{""page_index"":7,""viewing_time"":2893}]",37754.0,2502,,,,,,,,,,,,,,,,,,,
,instructions,256218.0,0.0-1.0-0.0,"[{""page_index"":0,""viewing_time"":13460},{""page_index"":1,""viewing_time"":37117},{""page_index"":2,""viewing_time"":72284},{""page_index"":3,""viewing_time"":14166},{""page_index"":4,""viewing_time"":26941},{""page_index"":5,""viewing_time"":9812},{""page_index"":6,""viewing_time"":19323},{""page_index"":5,""viewing_time"":29463},{""page_index"":6,""viewing_time"":18608},{""page_index"":7,""viewing_time"":6853}]",248028,2624,,,,,,,,,,,,,,,,,,,
,instructions,383637.0,0.0-1.1-0.1,"[{""page_index"":0,""viewing_time"":6276},{""page_index"":1,""viewing_time"":10535},{""page_index"":2,""viewing_time"":27183},{""page_index"":3,""viewing_time"":5618},{""page_index"":4,""viewing_time"":6898},{""page_index"":5,""viewing_time"":7491},{""page_index"":6,""viewing_time"":10929},{""page_index"":7,""viewing_time"":2105}]",77035,2624,,,,,,,,,,,,,,,,,,,
,instructions,453261.0,0.0-3.0-0.0,"[{""page_index"":0,""viewing_time"":27079}]",27079,2624,,,,,,,,,,,,,,,,,,,
,instructions,53401.0,0.0-1.0-0.0,"[{""page_index"":0,""viewing_time"":1763},{""page_index"":1,""viewing_time"":2462},{""page_index"":2,""viewing_time"":971},{""page_index"":3,""viewing_time"":627},{""page_index"":4,""viewing_time"":9124},{""page_index"":5,""viewing_time"":11490},{""page_index"":6,""viewing_time"":10617},{""page_index"":7,""viewing_time"":12079}]",49134,2414,,,,,,,,,,,,,,,,,,,
,instructions,107991.0,0.0-3.0-0.0,"[{""page_index"":0,""viewing_time"":14106}]",14106,2414,,,,,,,,,,,,,,,,,,,
,instructions,205796.0,0.0-1.0-0.0,"[{""page_index"":0,""viewing_time"":9436},{""page_index"":1,""viewing_time"":35688},{""page_index"":2,""viewing_time"":42504},{""page_index"":3,""viewing_time"":29055},{""page_index"":4,""viewing_time"":19779},{""page_index"":5,""viewing_time"":22482},{""page_index"":6,""viewing_time"":27814},{""page_index"":7,""viewing_time"":13005}]",199764.0,2383,,,,,,,,,,,,,,,,,,,
,instructions,293781.0,0.0-1.1-0.1,"[{""page_index"":0,""viewing_time"":1078},{""page_index"":1,""viewing_time"":1841},{""page_index"":2,""viewing_time"":1023},{""page_index"":3,""viewing_time"":1842},{""page_index"":4,""viewing_time"":940},{""page_index"":5,""viewing_time"":996},{""page_index"":6,""viewing_time"":1845},{""page_index"":7,""viewing_time"":1534}]",11100.0,2383,,,,,,,,,,,,,,,,,,,
,instructions,347297.0,0.0-1.2-0.2,"[{""page_index"":0,""viewing_time"":1204},{""page_index"":1,""viewing_time"":1614},{""page_index"":2,""viewing_time"":1055},{""page_index"":3,""viewing_time"":1527},{""page_index"":4,""viewing_time"":970},{""page_index"":5,""viewing_time"":563},{""page_index"":6,""viewing_time"":1514},{""page_index"":7,""viewing_time"":1275}]",9723.0,2383,,,,,,,,,,,,,,,,,,,
,instructions,417247.0,0.0-1.3-0.3,"[{""page_index"":0,""viewing_time"":1540},{""page_index"":1,""viewing_time"":2539},{""page_index"":2,""viewing_time"":1273},{""page_index"":3,""viewing_time"":1100},{""page_index"":4,""viewing_time"":2090},{""page_index"":3,""viewing_time"":959},{""page_index"":4,""viewing_time"":4364},{""page_index"":3,""viewing_time"":2972},{""page_index"":4,""viewing_time"":792},{""page_index"":5,""viewing_time"":2552},{""page_index"":6,""viewing_time"":12684},{""page_index"":7,""viewing_time"":3153}]",36018.0,2383,,,,,,,,,,,,,,,,,,,
,instructions,110941.0,0.0-1.0-0.0,"[{""page_index"":0,""viewing_time"":8731},{""page_index"":1,""viewing_time"":20388},{""page_index"":2,""viewing_time"":21060},{""page_index"":3,""viewing_time"":7776},{""page_index"":4,""viewing_time"":8282},{""page_index"":5,""viewing_time"":9046},{""page_index"":6,""viewing_time"":21567},{""page_index"":7,""viewing_time"":9566}]",106417,2816,,,,,,,,,,,,,,,,,,,
,instructions,162998.0,0.0-1.1-0.1,"[{""page_index"":0,""viewing_time"":1945},{""page_index"":1,""viewing_time"":5082},{""page_index"":2,""viewing_time"":3228},{""page_index"":3,""viewing_time"":6466},{""page_index"":4,""viewing_time"":3720},{""page_index"":5,""viewing_time"":3428},{""page_index"":6,""viewing_time"":4206},{""page_index"":7,""viewing_time"":1415}]",29491,2816,,,,,,,,,,,,,,,,,,,
,instructions,195428.0,0.0-3.0-0.0,"[{""page_index"":0,""viewing_time"":21122}]",21122,2816,,,,,,,,,,,,,,,,,,,
,instructions,164444.0,0.0-1.0-0.0,"[{""page_index"":0,""viewing_time"":11230},{""page_index"":1,""viewing_time"":31875},{""page_index"":2,""viewing_time"":30124},{""page_index"":3,""viewing_time"":15678},{""page_index"":4,""viewing_time"":15900},{""page_index"":5,""viewing_time"":11359},{""page_index"":6,""viewing_time"":32232},{""page_index"":7,""viewing_time"":9684}]",158084,2755,,,,,,,,,,,,,,,,,,,
,instructions,286844.0,0.0-1.1-0.1,"[{""page_index"":0,""viewing_time"":6332},{""page_index"":1,""viewing_time"":10697},{""page_index"":2,""viewing_time"":18474},{""page_index"":3,""viewing_time"":14642},{""page_index"":4,""viewing_time"":8326},{""page_index"":5,""viewing_time"":7939},{""page_index"":6,""viewing_time"":13447},{""page_index"":7,""viewing_time"":2456}]",82314,2755,,,,,,,,,,,,,,,,,,,
,instructions,322718.0,0.0-3.0-0.0,"[{""page_index"":0,""viewing_time"":12539}]",12540,2755,,,,,,,,,,,,,,,,,,,
,instructions,83236.0,0.0-1.0-0.0,"[{""page_index"":0,""viewing_time"":5373},{""page_index"":1,""viewing_time"":12677},{""page_index"":2,""viewing_time"":18544},{""page_index"":3,""viewing_time"":9258},{""page_index"":4,""viewing_time"":7554},{""page_index"":5,""viewing_time"":6700},{""page_index"":6,""viewing_time"":8038},{""page_index"":7,""viewing_time"":6608}]",74753,2716,,,,,,,,,,,,,,,,,,,
,instructions,164351.0,0.0-1.1-0.1,"[{""page_index"":0,""viewing_time"":1287},{""page_index"":1,""viewing_time"":6608},{""page_index"":2,""viewing_time"":5452},{""page_index"":3,""viewing_time"":7992},{""page_index"":4,""viewing_time"":2750},{""page_index"":5,""viewing_time"":3328},{""page_index"":6,""viewing_time"":9415},{""page_index"":5,""viewing_time"":1632},{""page_index"":4,""viewing_time"":3040},{""page_index"":3,""viewing_time"":5607},{""page_index"":4,""viewing_time"":681},{""page_index"":5,""viewing_time"":1586},{""page_index"":6,""viewing_time"":1446},{""page_index"":7,""viewing_time"":1234}]",52058,2716,,,,,,,,,,,,,,,,,,,
,instructions,183032.0,0.0-3.0-0.0,"[{""page_index"":0,""viewing_time"":7204}]",7204,2716,,,,,,,,,,,,,,,,,,,
,instructions,116955.0,0.0-1.0-0.0,"[{""page_index"":0,""viewing_time"":7028},{""page_index"":1,""viewing_time"":19192},{""page_index"":2,""viewing_time"":21788},{""page_index"":3,""viewing_time"":15218},{""page_index"":4,""viewing_time"":13507},{""page_index"":5,""viewing_time"":15979},{""page_index"":6,""viewing_time"":14757},{""page_index"":7,""viewing_time"":5453}]",112923,2717,,,,,,,,,,,,,,,,,,,
,instructions,178973.0,0.0-1.1-0.1,"[{""page_index"":0,""viewing_time"":2053},{""page_index"":1,""viewing_time"":2866},{""page_index"":2,""viewing_time"":8640},{""page_index"":3,""viewing_time"":5512},{""page_index"":4,""viewing_time"":1321},{""page_index"":5,""viewing_time"":907},{""page_index"":6,""viewing_time"":1297},{""page_index"":7,""viewing_time"":1373}]",23970,2717,,,,,,,,,,,,,,,,,,,
,instructions,215553.0,0.0-3.0-0.0,"[{""page_index"":0,""viewing_time"":3058}]",3058,2717,,,,,,,,,,,,,,,,,,,
,instructions,119583.0,0.0-1.0-0.0,"[{""page_index"":0,""viewing_time"":6283},{""page_index"":1,""viewing_time"":18835},{""page_index"":2,""viewing_time"":19696},{""page_index"":3,""viewing_time"":16642},{""page_index"":4,""viewing_time"":13372},{""page_index"":5,""viewing_time"":12638},{""page_index"":6,""viewing_time"":17990},{""page_index"":7,""viewing_time"":9058}]",114515,2627,,,,,,,,,,,,,,,,,,,
,instructions,160441.0,0.0-3.0-0.0,"[{""page_index"":0,""viewing_time"":8465}]",8465,2627,,,,,,,,,,,,,,,,,,,
,instructions,165111.0,0.0-1.0-0.0,"[{""page_index"":0,""viewing_time"":23782},{""page_index"":1,""viewing_time"":40885},{""page_index"":2,""viewing_time"":26334},{""page_index"":3,""viewing_time"":16908},{""page_index"":4,""viewing_time"":13246},{""page_index"":5,""viewing_time"":10035},{""page_index"":6,""viewing_time"":16121},{""page_index"":7,""viewing_time"":10607}]",157919,2628,,,,,,,,,,,,,,,,,,,
,instructions,208891.0,0.0-3.0-0.0,"[{""page_index"":0,""viewing_time"":11681}]",11681,2628,,,,,,,,,,,,,,,,,,,
,instructions,104973.0,0.0-1.0-0.0,"[{""page_index"":0,""viewing_time"":5735},{""page_index"":1,""viewing_time"":16459},{""page_index"":2,""viewing_time"":28464},{""page_index"":3,""viewing_time"":3151},{""page_index"":4,""viewing_time"":5008},{""page_index"":5,""viewing_time"":9865},{""page_index"":6,""viewing_time"":19356},{""page_index"":7,""viewing_time"":4630}]",92670,2629,,,,,,,,,,,,,,,,,,,
,instructions,195162.0,0.0-3.0-0.0,"[{""page_index"":0,""viewing_time"":7575}]",7576,2629,,,,,,,,,,,,,,,,,,,
,instructions,53632.0,0.0-1.0-0.0,"[{""page_index"":0,""viewing_time"":3818},{""page_index"":1,""viewing_time"":5462},{""page_index"":2,""viewing_time"":8042},{""page_index"":3,""viewing_time"":3536},{""page_index"":4,""viewing_time"":5471},{""page_index"":5,""viewing_time"":10928},{""page_index"":6,""viewing_time"":5022},{""page_index"":7,""viewing_time"":8512}]",50792,2601,,,,,,,,,,,,,,,,,,,
,instructions,81840.0,0.0-3.0-0.0,"[{""page_index"":0,""viewing_time"":9635}]",9635,2601,,,,,,,,,,,,,,,,,,,
,instructions,97512.0,0.0-1.0-0.0,"[{""page_index"":0,""viewing_time"":5466},{""page_index"":1,""viewing_time"":19764},{""page_index"":2,""viewing_time"":20631},{""page_index"":3,""viewing_time"":11934},{""page_index"":4,""viewing_time"":8662},{""page_index"":5,""viewing_time"":11604},{""page_index"":6,""viewing_time"":9742},{""page_index"":7,""viewing_time"":3935}]",91738,2537,,,,,,,,,,,,,,,,,,,
,instructions,127497.0,0.0-3.0-0.0,"[{""page_index"":0,""viewing_time"":9162}]",9163,2537,,,,,,,,,,,,,,,,,,,
,instructions,161853.0,0.0-1.0-0.0,"[{""page_index"":0,""viewing_time"":13860},{""page_index"":1,""viewing_time"":23128},{""page_index"":2,""viewing_time"":33616},{""page_index"":3,""viewing_time"":15808},{""page_index"":4,""viewing_time"":16016},{""page_index"":5,""viewing_time"":11552},{""page_index"":6,""viewing_time"":28487},{""page_index"":7,""viewing_time"":14976}]",157444,2538,,,,,,,,,,,,,,,,,,,
,instructions,224870.0,0.0-3.0-0.0,"[{""page_index"":0,""viewing_time"":16630}]",16630,2538,,,,,,,,,,,,,,,,,,,
,instructions,111667.0,0.0-1.0-0.0,"[{""page_index"":0,""viewing_time"":10617},{""page_index"":1,""viewing_time"":22402},{""page_index"":2,""viewing_time"":18608},{""page_index"":3,""viewing_time"":9361},{""page_index"":4,""viewing_time"":8755},{""page_index"":5,""viewing_time"":9268},{""page_index"":6,""viewing_time"":5938},{""page_index"":7,""viewing_time"":19201}]",104151,2505,,,,,,,,,,,,,,,,,,,
,instructions,186839.0,0.0-1.1-0.1,"[{""page_index"":0,""viewing_time"":1457},{""page_index"":1,""viewing_time"":1885},{""page_index"":2,""viewing_time"":1358},{""page_index"":3,""viewing_time"":15367},{""page_index"":4,""viewing_time"":3952},{""page_index"":5,""viewing_time"":2474},{""page_index"":6,""viewing_time"":11585},{""page_index"":7,""viewing_time"":1874}]",39953,2505,,,,,,,,,,,,,,,,,,,
,instructions,218712.0,0.0-3.0-0.0,"[{""page_index"":0,""viewing_time"":13937}]",13937,2505,,,,,,,,,,,,,,,,,,,
,instructions,102539.0,0.0-1.0-0.0,"[{""page_index"":0,""viewing_time"":16336},{""page_index"":1,""viewing_time"":20489},{""page_index"":2,""viewing_time"":12231},{""page_index"":3,""viewing_time"":9961},{""page_index"":4,""viewing_time"":9825},{""page_index"":5,""viewing_time"":9368},{""page_index"":6,""viewing_time"":12704},{""page_index"":7,""viewing_time"":3169}]",94084,2422,,,,,,,,,,,,,,,,,,,
,instructions,210092.0,0.0-1.1-0.1,"[{""page_index"":0,""viewing_time"":2166},{""page_index"":1,""viewing_time"":5536},{""page_index"":2,""viewing_time"":8621},{""page_index"":3,""viewing_time"":3549},{""page_index"":4,""viewing_time"":1726},{""page_index"":5,""viewing_time"":2373},{""page_index"":6,""viewing_time"":7730},{""page_index"":7,""viewing_time"":1427}]",33128,2422,,,,,,,,,,,,,,,,,,,
,instructions,227432.0,0.0-3.0-0.0,"[{""page_index"":0,""viewing_time"":6959}]",6959,2422,,,,,,,,,,,,,,,,,,,
,instructions,100568.0,0.0-1.0-0.0,"[{""page_index"":0,""viewing_time"":10440},{""page_index"":1,""viewing_time"":15868},{""page_index"":2,""viewing_time"":20412},{""page_index"":3,""viewing_time"":11344},{""page_index"":4,""viewing_time"":11576},{""page_index"":5,""viewing_time"":8548},{""page_index"":6,""viewing_time"":12300},{""page_index"":7,""viewing_time"":4216}]",94704,2415,,,,,,,,,,,,,,,,,,,
,instructions,145903.0,0.0-1.1-0.1,"[{""page_index"":0,""viewing_time"":1225},{""page_index"":1,""viewing_time"":2284},{""page_index"":2,""viewing_time"":1376},{""page_index"":3,""viewing_time"":1132},{""page_index"":4,""viewing_time"":1200},{""page_index"":5,""viewing_time"":1932},{""page_index"":6,""viewing_time"":3984},{""page_index"":7,""viewing_time"":1296}]",14429,2415,,,,,,,,,,,,,,,,,,,
,instructions,216335.0,0.0-1.2-0.2,"[{""page_index"":0,""viewing_time"":3214},{""page_index"":1,""viewing_time"":11111},{""page_index"":2,""viewing_time"":15532},{""page_index"":3,""viewing_time"":10484},{""page_index"":4,""viewing_time"":2760},{""page_index"":5,""viewing_time"":2092},{""page_index"":6,""viewing_time"":7792},{""page_index"":7,""viewing_time"":1544}]",54530,2415,,,,,,,,,,,,,,,,,,,
,instructions,229693.0,0.0-3.0-0.0,"[{""page_index"":0,""viewing_time"":2979}]",2979,2415,,,,,,,,,,,,,,,,,,,
,instructions,62544.0,0.0-1.0-0.0,"[{""page_index"":0,""viewing_time"":7242},{""page_index"":1,""viewing_time"":15392},{""page_index"":2,""viewing_time"":2824},{""page_index"":3,""viewing_time"":10577},{""page_index"":4,""viewing_time"":7063},{""page_index"":5,""viewing_time"":8625},{""page_index"":6,""viewing_time"":3600},{""page_index"":7,""viewing_time"":1880}]",57203,2394,,,,,,,,,,,,,,,,,,,
,instructions,201304.0,0.0-1.1-0.1,"[{""page_index"":0,""viewing_time"":8781},{""page_index"":1,""viewing_time"":13088},{""page_index"":2,""viewing_time"":54240},{""page_index"":3,""viewing_time"":4784},{""page_index"":4,""viewing_time"":5144},{""page_index"":5,""viewing_time"":4560},{""page_index"":6,""viewing_time"":1656},{""page_index"":5,""viewing_time"":2864},{""page_index"":6,""viewing_time"":9927},{""page_index"":7,""viewing_time"":2121}]",107165,2394,,,,,,,,,,,,,,,,,,,
,instructions,223473.0,0.0-3.0-0.0,"[{""page_index"":0,""viewing_time"":3414}]",3414,2394,,,,,,,,,,,,,,,,,,,
,instructions,97372.0,0.0-1.0-0.0,"[{""page_index"":0,""viewing_time"":7763},{""page_index"":1,""viewing_time"":20607},{""page_index"":2,""viewing_time"":13340},{""page_index"":3,""viewing_time"":7808},{""page_index"":4,""viewing_time"":14948},{""page_index"":5,""viewing_time"":6426},{""page_index"":6,""viewing_time"":7978},{""page_index"":7,""viewing_time"":10295}]",89174,2756,,,,,,,,,,,,,,,,,,,
,instructions,167447.0,0.0-3.0-0.0,"[{""page_index"":0,""viewing_time"":13442}]",13443,2756,,,,,,,,,,,,,,,,,,,
,instructions,284199.0,0.0-1.0-0.0,"[{""page_index"":0,""viewing_time"":73578},{""page_index"":1,""viewing_time"":25349},{""page_index"":2,""viewing_time"":95463},{""page_index"":3,""viewing_time"":15743},{""page_index"":4,""viewing_time"":12163},{""page_index"":5,""viewing_time"":14794},{""page_index"":6,""viewing_time"":27754},{""page_index"":7,""viewing_time"":15204}]",280051.0,2757,,,,,,,,,,,,,,,,,,,
,instructions,470865.0,0.0-1.1-0.1,"[{""page_index"":0,""viewing_time"":8105},{""page_index"":1,""viewing_time"":24205},{""page_index"":2,""viewing_time"":20122},{""page_index"":3,""viewing_time"":10908},{""page_index"":4,""viewing_time"":17441},{""page_index"":5,""viewing_time"":18447},{""page_index"":6,""viewing_time"":20585},{""page_index"":7,""viewing_time"":7876}]",127690.0,2757,,,,,,,,,,,,,,,,,,,
,instructions,629785.0,0.0-1.2-0.2,"[{""page_index"":0,""viewing_time"":1615},{""page_index"":1,""viewing_time"":3206},{""page_index"":2,""viewing_time"":1788},{""page_index"":3,""viewing_time"":1739},{""page_index"":4,""viewing_time"":1702},{""page_index"":5,""viewing_time"":1477},{""page_index"":6,""viewing_time"":2138},{""page_index"":7,""viewing_time"":1953}]",15620.0,2757,,,,,,,,,,,,,,,,,,,
,instructions,792136.0,0.0-1.3-0.3,"[{""page_index"":0,""viewing_time"":1803},{""page_index"":1,""viewing_time"":3075},{""page_index"":2,""viewing_time"":2192},{""page_index"":3,""viewing_time"":8556},{""page_index"":4,""viewing_time"":4458},{""page_index"":5,""viewing_time"":5504},{""page_index"":6,""viewing_time"":17138},{""page_index"":7,""viewing_time"":2793},{""page_index"":6,""viewing_time"":6267},{""page_index"":7,""viewing_time"":2038}]",53826.0,2757,,,,,,,,,,,,,,,,,,,
,instructions,95786.0,0.0-1.0-0.0,"[{""page_index"":0,""viewing_time"":5984},{""page_index"":1,""viewing_time"":16065},{""page_index"":2,""viewing_time"":14332},{""page_index"":3,""viewing_time"":10254},{""page_index"":4,""viewing_time"":11458},{""page_index"":5,""viewing_time"":6156},{""page_index"":6,""viewing_time"":16082},{""page_index"":7,""viewing_time"":10050}]",90383,2758,,,,,,,,,,,,,,,,,,,
,instructions,141252.0,0.0-3.0-0.0,"[{""page_index"":0,""viewing_time"":12205}]",12206,2758,,,,,,,,,,,,,,,,,,,
,instructions,68894.0,0.0-1.0-0.0,"[{""page_index"":0,""viewing_time"":5003},{""page_index"":1,""viewing_time"":13784},{""page_index"":2,""viewing_time"":12655},{""page_index"":3,""viewing_time"":7328},{""page_index"":4,""viewing_time"":6176},{""page_index"":5,""viewing_time"":5008},{""page_index"":6,""viewing_time"":9224},{""page_index"":7,""viewing_time"":6664}]",65843,2759,,,,,,,,,,,,,,,,,,,
,instructions,133269.0,0.0-1.1-0.1,"[{""page_index"":0,""viewing_time"":2021},{""page_index"":1,""viewing_time"":2160},{""page_index"":2,""viewing_time"":4288},{""page_index"":3,""viewing_time"":11624},{""page_index"":4,""viewing_time"":4696},{""page_index"":5,""viewing_time"":2559},{""page_index"":6,""viewing_time"":8513},{""page_index"":7,""viewing_time"":2063}]",37925,2759,,,,,,,,,,,,,,,,,,,
,instructions,159434.0,0.0-3.0-0.0,"[{""page_index"":0,""viewing_time"":10849}]",10850,2759,,,,,,,,,,,,,,,,,,,
,instructions,240893.0,0.0-1.0-0.0,"[{""page_index"":0,""viewing_time"":11847},{""page_index"":1,""viewing_time"":43972},{""page_index"":2,""viewing_time"":36189},{""page_index"":3,""viewing_time"":25039},{""page_index"":4,""viewing_time"":15036},{""page_index"":5,""viewing_time"":10548},{""page_index"":6,""viewing_time"":44560},{""page_index"":7,""viewing_time"":10967}]",198160,2630,,,,,,,,,,,,,,,,,,,
,instructions,316395.0,0.0-3.0-0.0,"[{""page_index"":0,""viewing_time"":13656}]",13657,2630,,,,,,,,,,,,,,,,,,,
,instructions,216054.0,0.0-1.0-0.0,"[{""page_index"":0,""viewing_time"":19240},{""page_index"":1,""viewing_time"":44918},{""page_index"":2,""viewing_time"":55948},{""page_index"":3,""viewing_time"":17682},{""page_index"":4,""viewing_time"":17613},{""page_index"":5,""viewing_time"":18831},{""page_index"":6,""viewing_time"":24570},{""page_index"":7,""viewing_time"":13900}]",212703,2631,,,,,,,,,,,,,,,,,,,
,instructions,282484.0,0.0-3.0-0.0,"[{""page_index"":0,""viewing_time"":24185}]",24186,2631,,,,,,,,,,,,,,,,,,,
,instructions,170611.0,0.0-1.0-0.0,"[{""page_index"":0,""viewing_time"":13360},{""page_index"":1,""viewing_time"":48637},{""page_index"":2,""viewing_time"":24475},{""page_index"":3,""viewing_time"":13136},{""page_index"":4,""viewing_time"":11816},{""page_index"":5,""viewing_time"":10269},{""page_index"":6,""viewing_time"":26907},{""page_index"":7,""viewing_time"":15003}]",163603,2597,,,,,,,,,,,,,,,,,,,
,instructions,366589.0,0.0-1.1-0.1,"[{""page_index"":0,""viewing_time"":36469},{""page_index"":1,""viewing_time"":19147},{""page_index"":2,""viewing_time"":27003},{""page_index"":3,""viewing_time"":7029},{""page_index"":4,""viewing_time"":10528},{""page_index"":5,""viewing_time"":23105},{""page_index"":6,""viewing_time"":15373},{""page_index"":7,""viewing_time"":6422}]",145077,2597,,,,,,,,,,,,,,,,,,,
,instructions,578016.0,0.0-1.2-0.2,"[{""page_index"":0,""viewing_time"":10499},{""page_index"":1,""viewing_time"":26923},{""page_index"":2,""viewing_time"":17394},{""page_index"":3,""viewing_time"":7099},{""page_index"":4,""viewing_time"":5975},{""page_index"":5,""viewing_time"":13150},{""page_index"":6,""viewing_time"":22282},{""page_index"":7,""viewing_time"":5059}]",108381,2597,,,,,,,,,,,,,,,,,,,
,instructions,613618.0,0.0-3.0-0.0,"[{""page_index"":0,""viewing_time"":14515}]",14515,2597,,,,,,,,,,,,,,,,,,,
,instructions,116329.0,0.0-1.0-0.0,"[{""page_index"":0,""viewing_time"":5584},{""page_index"":1,""viewing_time"":25104},{""page_index"":2,""viewing_time"":18312},{""page_index"":3,""viewing_time"":15647},{""page_index"":4,""viewing_time"":6601},{""page_index"":5,""viewing_time"":13928},{""page_index"":6,""viewing_time"":19096},{""page_index"":7,""viewing_time"":9400}]",113672,2584,,,,,,,,,,,,,,,,,,,
,instructions,151417.0,0.0-3.0-0.0,"[{""page_index"":0,""viewing_time"":10251}]",10252,2584,,,,,,,,,,,,,,,,,,,
,instructions,531986.0,0.0-1.0-0.0,"[{""page_index"":0,""viewing_time"":410496},{""page_index"":1,""viewing_time"":26540},{""page_index"":2,""viewing_time"":22760},{""page_index"":3,""viewing_time"":9091},{""page_index"":4,""viewing_time"":21463},{""page_index"":5,""viewing_time"":11282},{""page_index"":6,""viewing_time"":14820},{""page_index"":7,""viewing_time"":10131}]",526584,2514,,,,,,,,,,,,,,,,,,,
,instructions,732633.0,0.0-3.0-0.0,"[{""page_index"":0,""viewing_time"":24288}]",24288,2514,,,,,,,,,,,,,,,,,,,
,instructions,106454.0,0.0-1.0-0.0,"[{""page_index"":0,""viewing_time"":7686},{""page_index"":1,""viewing_time"":17322},{""page_index"":2,""viewing_time"":23363},{""page_index"":3,""viewing_time"":7991},{""page_index"":4,""viewing_time"":12057},{""page_index"":5,""viewing_time"":9593},{""page_index"":6,""viewing_time"":16603},{""page_index"":7,""viewing_time"":7149}]",101765,2511,,,,,,,,,,,,,,,,,,,
,instructions,154608.0,0.0-3.0-0.0,"[{""page_index"":0,""viewing_time"":9472}]",9472,2511,,,,,,,,,,,,,,,,,,,
,instructions,316925.0,0.0-1.0-0.0,"[{""page_index"":0,""viewing_time"":14813},{""page_index"":1,""viewing_time"":87129},{""page_index"":2,""viewing_time"":43884},{""page_index"":3,""viewing_time"":34960},{""page_index"":4,""viewing_time"":17094},{""page_index"":5,""viewing_time"":54285},{""page_index"":6,""viewing_time"":50603},{""page_index"":7,""viewing_time"":8682}]",311451,2506,,,,,,,,,,,,,,,,,,,
,instructions,550985.0,0.0-1.1-0.1,"[{""page_index"":0,""viewing_time"":7398},{""page_index"":1,""viewing_time"":16984},{""page_index"":2,""viewing_time"":7122},{""page_index"":1,""viewing_time"":1302},{""page_index"":0,""viewing_time"":16988},{""page_index"":1,""viewing_time"":10904},{""page_index"":2,""viewing_time"":13238},{""page_index"":3,""viewing_time"":22714},{""page_index"":4,""viewing_time"":16793},{""page_index"":5,""viewing_time"":13882},{""page_index"":4,""viewing_time"":522},{""page_index"":3,""viewing_time"":915},{""page_index"":2,""viewing_time"":468},{""page_index"":1,""viewing_time"":2237},{""page_index"":0,""viewing_time"":1140},{""page_index"":1,""viewing_time"":1193},{""page_index"":2,""viewing_time"":4057},{""page_index"":3,""viewing_time"":1152},{""page_index"":4,""viewing_time"":3246},{""page_index"":5,""viewing_time"":982},{""page_index"":6,""viewing_time"":27354},{""page_index"":7,""viewing_time"":1959}]",172550,2506,,,,,,,,,,,,,,,,,,,
,instructions,606669.0,0.0-3.0-0.0,"[{""page_index"":0,""viewing_time"":22942}]",22943,2506,,,,,,,,,,,,,,,,,,,
,instructions,59578.0,0.0-1.0-0.0,"[{""page_index"":0,""viewing_time"":3143},{""page_index"":1,""viewing_time"":7170},{""page_index"":2,""viewing_time"":13512},{""page_index"":3,""viewing_time"":6962},{""page_index"":4,""viewing_time"":7546},{""page_index"":5,""viewing_time"":5766},{""page_index"":6,""viewing_time"":11118},{""page_index"":7,""viewing_time"":2008}]",57226,2467,,,,,,,,,,,,,,,,,,,
,instructions,78566.0,0.0-3.0-0.0,"[{""page_index"":0,""viewing_time"":1594}]",1594,2467,,,,,,,,,,,,,,,,,,,
,instructions,279011.0,0.0-1.0-0.0,"[{""page_index"":0,""viewing_time"":10737},{""page_index"":1,""viewing_time"":121860},{""page_index"":2,""viewing_time"":41571},{""page_index"":3,""viewing_time"":15401},{""page_index"":4,""viewing_time"":18501},{""page_index"":5,""viewing_time"":19047},{""page_index"":6,""viewing_time"":30378},{""page_index"":7,""viewing_time"":15150}]",272652,1038,,,,,,,,,,,,,,,,,,,
,instructions,462079.0,0.0-1.1-0.1,"[{""page_index"":0,""viewing_time"":10857},{""page_index"":1,""viewing_time"":10171},{""page_index"":2,""viewing_time"":16020},{""page_index"":3,""viewing_time"":20375},{""page_index"":4,""viewing_time"":14946},{""page_index"":5,""viewing_time"":6780},{""page_index"":6,""viewing_time"":33323},{""page_index"":7,""viewing_time"":2706}]",115180,1038,,,,,,,,,,,,,,,,,,,
,instructions,531441.0,0.0-3.0-0.0,"[{""page_index"":0,""viewing_time"":18481}]",18482,1038,,,,,,,,,,,,,,,,,,,
,instructions,92494.0,0.0-1.0-0.0,"[{""page_index"":0,""viewing_time"":4404},{""page_index"":1,""viewing_time"":4897},{""page_index"":2,""viewing_time"":6616},{""page_index"":3,""viewing_time"":1631},{""page_index"":4,""viewing_time"":3808},{""page_index"":5,""viewing_time"":5025},{""page_index"":6,""viewing_time"":52640},{""page_index"":7,""viewing_time"":8895}]",87917,2395,,,,,,,,,,,,,,,,,,,
,instructions,145309.0,0.0-1.1-0.1,"[{""page_index"":0,""viewing_time"":4534},{""page_index"":1,""viewing_time"":3800},{""page_index"":2,""viewing_time"":15616},{""page_index"":3,""viewing_time"":1976},{""page_index"":4,""viewing_time"":1784},{""page_index"":5,""viewing_time"":624},{""page_index"":6,""viewing_time"":1432},{""page_index"":7,""viewing_time"":1088}]",30854,2395,,,,,,,,,,,,,,,,,,,
,instructions,160870.0,0.0-3.0-0.0,"[{""page_index"":0,""viewing_time"":3600}]",3600,2395,,,,,,,,,,,,,,,,,,,
,instructions,175131.0,0.0-1.0-0.0,"[{""page_index"":0,""viewing_time"":8975},{""page_index"":1,""viewing_time"":48175},{""page_index"":2,""viewing_time"":27511},{""page_index"":3,""viewing_time"":20082},{""page_index"":4,""viewing_time"":14910},{""page_index"":5,""viewing_time"":8438},{""page_index"":6,""viewing_time"":30546},{""page_index"":7,""viewing_time"":9241}]",167879,2817,,,,,,,,,,,,,,,,,,,
,instructions,224631.0,0.0-3.0-0.0,"[{""page_index"":0,""viewing_time"":10304}]",10304,2817,,,,,,,,,,,,,,,,,,,
,instructions,147855.0,0.0-1.0-0.0,"[{""page_index"":0,""viewing_time"":8648},{""page_index"":1,""viewing_time"":33051},{""page_index"":2,""viewing_time"":25977},{""page_index"":3,""viewing_time"":14271},{""page_index"":4,""viewing_time"":9551},{""page_index"":5,""viewing_time"":10434},{""page_index"":6,""viewing_time"":22413},{""page_index"":7,""viewing_time"":12997}]",137343,2760,,,,,,,,,,,,,,,,,,,
,instructions,293985.0,0.0-1.1-0.1,"[{""page_index"":0,""viewing_time"":9674},{""page_index"":1,""viewing_time"":13999},{""page_index"":2,""viewing_time"":16729},{""page_index"":3,""viewing_time"":6980},{""page_index"":4,""viewing_time"":18845},{""page_index"":5,""viewing_time"":8847},{""page_index"":6,""viewing_time"":20977},{""page_index"":7,""viewing_time"":2730}]",98782,2760,,,,,,,,,,,,,,,,,,,
,instructions,380218.0,0.0-3.0-0.0,"[{""page_index"":0,""viewing_time"":10088}]",10089,2760,,,,,,,,,,,,,,,,,,,
,instructions,124509.0,0.0-1.0-0.0,"[{""page_index"":0,""viewing_time"":14036},{""page_index"":1,""viewing_time"":23033},{""page_index"":2,""viewing_time"":22961},{""page_index"":3,""viewing_time"":8707},{""page_index"":4,""viewing_time"":9435},{""page_index"":5,""viewing_time"":7896},{""page_index"":6,""viewing_time"":18696},{""page_index"":7,""viewing_time"":12215}]",116985,244,,,,,,,,,,,,,,,,,,,
,instructions,164287.0,0.0-3.0-0.0,"[{""page_index"":0,""viewing_time"":11502}]",11503,244,,,,,,,,,,,,,,,,,,,
,instructions,155996.0,0.0-1.0-0.0,"[{""page_index"":0,""viewing_time"":3385},{""page_index"":1,""viewing_time"":95432},{""page_index"":2,""viewing_time"":13224},{""page_index"":3,""viewing_time"":6871},{""page_index"":4,""viewing_time"":5745},{""page_index"":5,""viewing_time"":4418},{""page_index"":6,""viewing_time"":10861},{""page_index"":7,""viewing_time"":9848}]",149784,2718,,,,,,,,,,,,,,,,,,,
,instructions,189074.0,0.0-3.0-0.0,"[{""page_index"":0,""viewing_time"":2973}]",2973,2718,,,,,,,,,,,,,,,,,,,
,instructions,107939.0,0.0-1.0-0.0,"[{""page_index"":0,""viewing_time"":8564},{""page_index"":1,""viewing_time"":18980},{""page_index"":2,""viewing_time"":20615},{""page_index"":3,""viewing_time"":12451},{""page_index"":4,""viewing_time"":10098},{""page_index"":5,""viewing_time"":9441},{""page_index"":6,""viewing_time"":17272},{""page_index"":7,""viewing_time"":6875}]",104296,2632,,,,,,,,,,,,,,,,,,,
,instructions,190385.0,0.0-1.1-0.1,"[{""page_index"":0,""viewing_time"":4112},{""page_index"":1,""viewing_time"":11233},{""page_index"":2,""viewing_time"":16539},{""page_index"":3,""viewing_time"":4541},{""page_index"":4,""viewing_time"":1324},{""page_index"":5,""viewing_time"":1915},{""page_index"":6,""viewing_time"":1572},{""page_index"":7,""viewing_time"":1499}]",42735,2632,,,,,,,,,,,,,,,,,,,
,instructions,210485.0,0.0-3.0-0.0,"[{""page_index"":0,""viewing_time"":3693}]",3693,2632,,,,,,,,,,,,,,,,,,,
,instructions,125720.0,0.0-1.0-0.0,"[{""page_index"":0,""viewing_time"":4696},{""page_index"":1,""viewing_time"":62517},{""page_index"":2,""viewing_time"":21693},{""page_index"":3,""viewing_time"":10956},{""page_index"":4,""viewing_time"":7934},{""page_index"":5,""viewing_time"":1882},{""page_index"":6,""viewing_time"":8988},{""page_index"":7,""viewing_time"":2713}]",121379,2633,,,,,,,,,,,,,,,,,,,
,instructions,255654.0,0.0-1.1-0.1,"[{""page_index"":0,""viewing_time"":1378},{""page_index"":1,""viewing_time"":6427},{""page_index"":0,""viewing_time"":2986},{""page_index"":1,""viewing_time"":9791},{""page_index"":2,""viewing_time"":8162},{""page_index"":3,""viewing_time"":4348},{""page_index"":4,""viewing_time"":6915},{""page_index"":5,""viewing_time"":5079},{""page_index"":6,""viewing_time"":5356},{""page_index"":7,""viewing_time"":2987}]",53429,2633,,,,,,,,,,,,,,,,,,,
,instructions,503317.0,0.0-1.2-0.2,"[{""page_index"":0,""viewing_time"":1192},{""page_index"":1,""viewing_time"":1666},{""page_index"":2,""viewing_time"":5689},{""page_index"":3,""viewing_time"":1801},{""page_index"":4,""viewing_time"":6082},{""page_index"":5,""viewing_time"":12338},{""page_index"":6,""viewing_time"":2570},{""page_index"":7,""viewing_time"":1251}]",32590,2633,,,,,,,,,,,,,,,,,,,
,instructions,581555.0,0.0-1.3-0.3,"[{""page_index"":0,""viewing_time"":1175},{""page_index"":1,""viewing_time"":1351},{""page_index"":2,""viewing_time"":1125},{""page_index"":3,""viewing_time"":1516},{""page_index"":4,""viewing_time"":807},{""page_index"":5,""viewing_time"":1114},{""page_index"":6,""viewing_time"":1218},{""page_index"":7,""viewing_time"":1175}]",9482,2633,,,,,,,,,,,,,,,,,,,
,instructions,621354.0,0.0-3.0-0.0,"[{""page_index"":0,""viewing_time"":15857}]",15857,2633,,,,,,,,,,,,,,,,,,,
,instructions,176898.0,0.0-1.0-0.0,"[{""page_index"":0,""viewing_time"":11737},{""page_index"":1,""viewing_time"":28310},{""page_index"":2,""viewing_time"":35293},{""page_index"":3,""viewing_time"":25209},{""page_index"":4,""viewing_time"":11309},{""page_index"":5,""viewing_time"":14668},{""page_index"":6,""viewing_time"":28521},{""page_index"":7,""viewing_time"":17351}]",172399,2634,,,,,,,,,,,,,,,,,,,
,instructions,412764.0,0.0-1.1-0.1,"[{""page_index"":0,""viewing_time"":19755},{""page_index"":1,""viewing_time"":11863},{""page_index"":2,""viewing_time"":33840},{""page_index"":3,""viewing_time"":23326},{""page_index"":4,""viewing_time"":9573},{""page_index"":5,""viewing_time"":8543},{""page_index"":6,""viewing_time"":6990},{""page_index"":7,""viewing_time"":1953}]",115844,2634,,,,,,,,,,,,,,,,,,,
,instructions,565990.0,0.0-1.2-0.2,"[{""page_index"":0,""viewing_time"":1844},{""page_index"":1,""viewing_time"":1724},{""page_index"":2,""viewing_time"":2351},{""page_index"":3,""viewing_time"":1540},{""page_index"":4,""viewing_time"":14463},{""page_index"":5,""viewing_time"":2174},{""page_index"":6,""viewing_time"":1718},{""page_index"":7,""viewing_time"":1814}]",27628,2634,,,,,,,,,,,,,,,,,,,
,instructions,702225.0,0.0-1.3-0.3,"[{""page_index"":0,""viewing_time"":1537},{""page_index"":1,""viewing_time"":1359},{""page_index"":2,""viewing_time"":1311},{""page_index"":3,""viewing_time"":1597},{""page_index"":4,""viewing_time"":1371},{""page_index"":5,""viewing_time"":1112},{""page_index"":6,""viewing_time"":1791},{""page_index"":7,""viewing_time"":1593}]",11671,2634,,,,,,,,,,,,,,,,,,,
,instructions,747035.0,0.0-3.0-0.0,"[{""page_index"":0,""viewing_time"":23705}]",23706,2634,,,,,,,,,,,,,,,,,,,
,instructions,159023.0,0.0-1.0-0.0,"[{""page_index"":0,""viewing_time"":10690},{""page_index"":1,""viewing_time"":19823},{""page_index"":2,""viewing_time"":62761},{""page_index"":3,""viewing_time"":19827},{""page_index"":4,""viewing_time"":11006},{""page_index"":5,""viewing_time"":7633},{""page_index"":6,""viewing_time"":17518},{""page_index"":7,""viewing_time"":4980}]",154239,2539,,,,,,,,,,,,,,,,,,,
,instructions,265671.0,0.0-1.1-0.1,"[{""page_index"":0,""viewing_time"":6506},{""page_index"":1,""viewing_time"":6427},{""page_index"":2,""viewing_time"":12288},{""page_index"":3,""viewing_time"":7323},{""page_index"":4,""viewing_time"":7206},{""page_index"":5,""viewing_time"":7497},{""page_index"":6,""viewing_time"":17355},{""page_index"":7,""viewing_time"":1470}]",66073,2539,,,,,,,,,,,,,,,,,,,
,instructions,321006.0,0.0-1.2-0.2,"[{""page_index"":0,""viewing_time"":2712},{""page_index"":1,""viewing_time"":1850},{""page_index"":2,""viewing_time"":2220},{""page_index"":3,""viewing_time"":1851},{""page_index"":4,""viewing_time"":4726},{""page_index"":5,""viewing_time"":6941},{""page_index"":6,""viewing_time"":4625},{""page_index"":7,""viewing_time"":1746},{""page_index"":6,""viewing_time"":1045},{""page_index"":5,""viewing_time"":3343},{""page_index"":6,""viewing_time"":1783},{""page_index"":7,""viewing_time"":1487}]",34329,2539,,,,,,,,,,,,,,,,,,,
,instructions,382749.0,0.0-1.3-0.3,"[{""page_index"":0,""viewing_time"":1267},{""page_index"":1,""viewing_time"":1820},{""page_index"":2,""viewing_time"":6731},{""page_index"":3,""viewing_time"":1502},{""page_index"":4,""viewing_time"":7071},{""page_index"":5,""viewing_time"":791},{""page_index"":4,""viewing_time"":1119},{""page_index"":5,""viewing_time"":909},{""page_index"":6,""viewing_time"":1338},{""page_index"":7,""viewing_time"":1910}]",24458,2539,,,,,,,,,,,,,,,,,,,
,instructions,407891.0,0.0-3.0-0.0,"[{""page_index"":0,""viewing_time"":10380}]",10380,2539,,,,,,,,,,,,,,,,,,,
,instructions,227195.0,0.0-1.0-0.0,"[{""page_index"":0,""viewing_time"":12601},{""page_index"":1,""viewing_time"":41384},{""page_index"":2,""viewing_time"":50815},{""page_index"":3,""viewing_time"":18792},{""page_index"":4,""viewing_time"":15880},{""page_index"":5,""viewing_time"":17056},{""page_index"":6,""viewing_time"":40856},{""page_index"":7,""viewing_time"":15544}]",212928,2540,,,,,,,,,,,,,,,,,,,
,instructions,317228.0,0.0-3.0-0.0,"[{""page_index"":0,""viewing_time"":42908}]",42908,2540,,,,,,,,,,,,,,,,,,,
,instructions,141370.0,0.0-1.0-0.0,"[{""page_index"":0,""viewing_time"":5313},{""page_index"":1,""viewing_time"":20131},{""page_index"":2,""viewing_time"":43918},{""page_index"":3,""viewing_time"":15096},{""page_index"":4,""viewing_time"":11505},{""page_index"":5,""viewing_time"":12497},{""page_index"":6,""viewing_time"":24678},{""page_index"":7,""viewing_time"":5654}]",138793,2515,,,,,,,,,,,,,,,,,,,
,instructions,335613.0,0.0-1.1-0.1,"[{""page_index"":0,""viewing_time"":4802},{""page_index"":1,""viewing_time"":106470},{""page_index"":2,""viewing_time"":15377},{""page_index"":3,""viewing_time"":5466},{""page_index"":4,""viewing_time"":6189},{""page_index"":5,""viewing_time"":2064},{""page_index"":6,""viewing_time"":2380},{""page_index"":7,""viewing_time"":2388}]",145137,2515,,,,,,,,,,,,,,,,,,,
,instructions,434167.0,0.0-3.0-0.0,"[{""page_index"":0,""viewing_time"":73674}]",73674,2515,,,,,,,,,,,,,,,,,,,
,instructions,80093.0,0.0-1.0-0.0,"[{""page_index"":0,""viewing_time"":4055},{""page_index"":1,""viewing_time"":9854},{""page_index"":2,""viewing_time"":16961},{""page_index"":3,""viewing_time"":7891},{""page_index"":4,""viewing_time"":9285},{""page_index"":5,""viewing_time"":8987},{""page_index"":6,""viewing_time"":12381},{""page_index"":7,""viewing_time"":3576}]",72992,2503,,,,,,,,,,,,,,,,,,,
,instructions,110712.0,0.0-3.0-0.0,"[{""page_index"":0,""viewing_time"":8889}]",8890,2503,,,,,,,,,,,,,,,,,,,
,instructions,163441.0,0.0-1.0-0.0,"[{""page_index"":0,""viewing_time"":5498},{""page_index"":1,""viewing_time"":16891},{""page_index"":2,""viewing_time"":25948},{""page_index"":3,""viewing_time"":9381},{""page_index"":4,""viewing_time"":8034},{""page_index"":5,""viewing_time"":14669},{""page_index"":6,""viewing_time"":43181},{""page_index"":7,""viewing_time"":32985}]",156591,2468,,,,,,,,,,,,,,,,,,,
,instructions,303580.0,0.0-3.0-0.0,"[{""page_index"":0,""viewing_time"":21327}]",21327,2468,,,,,,,,,,,,,,,,,,,
,instructions,164767.0,0.0-1.0-0.0,"[{""page_index"":0,""viewing_time"":14796},{""page_index"":1,""viewing_time"":28649},{""page_index"":2,""viewing_time"":30031},{""page_index"":3,""viewing_time"":19534},{""page_index"":4,""viewing_time"":10426},{""page_index"":5,""viewing_time"":13373},{""page_index"":6,""viewing_time"":29909},{""page_index"":7,""viewing_time"":13650}]",160371,2396,,,,,,,,,,,,,,,,,,,
,instructions,294021.0,0.0-1.1-0.1,"[{""page_index"":0,""viewing_time"":1932},{""page_index"":1,""viewing_time"":12643},{""page_index"":2,""viewing_time"":17459},{""page_index"":3,""viewing_time"":3844},{""page_index"":4,""viewing_time"":10487},{""page_index"":5,""viewing_time"":1735},{""page_index"":6,""viewing_time"":7843},{""page_index"":7,""viewing_time"":1992}]",57938,2396,,,,,,,,,,,,,,,,,,,
,instructions,437759.0,0.0-1.2-0.2,"[{""page_index"":0,""viewing_time"":4299},{""page_index"":1,""viewing_time"":6890},{""page_index"":2,""viewing_time"":15783},{""page_index"":3,""viewing_time"":7046},{""page_index"":4,""viewing_time"":16050},{""page_index"":5,""viewing_time"":9810},{""page_index"":6,""viewing_time"":12896},{""page_index"":7,""viewing_time"":3414}]",76189,2396,,,,,,,,,,,,,,,,,,,
,instructions,491537.0,0.0-3.0-0.0,"[{""page_index"":0,""viewing_time"":19182}]",19184,2396,,,,,,,,,,,,,,,,,,,
,instructions,109912.0,0.0-1.0-0.0,"[{""page_index"":0,""viewing_time"":4966},{""page_index"":1,""viewing_time"":13053},{""page_index"":2,""viewing_time"":12852},{""page_index"":3,""viewing_time"":48454},{""page_index"":4,""viewing_time"":5544},{""page_index"":5,""viewing_time"":10386},{""page_index"":6,""viewing_time"":6964},{""page_index"":7,""viewing_time"":3284}]",105503,1715,,,,,,,,,,,,,,,,,,,
,instructions,155660.0,0.0-3.0-0.0,"[{""page_index"":0,""viewing_time"":4286}]",4286,1715,,,,,,,,,,,,,,,,,,,
,instructions,90115.0,0.0-1.0-0.0,"[{""page_index"":0,""viewing_time"":5434},{""page_index"":1,""viewing_time"":10347},{""page_index"":2,""viewing_time"":17992},{""page_index"":3,""viewing_time"":7173},{""page_index"":2,""viewing_time"":4823},{""page_index"":3,""viewing_time"":2145},{""page_index"":4,""viewing_time"":9455},{""page_index"":5,""viewing_time"":3993},{""page_index"":6,""viewing_time"":15667},{""page_index"":7,""viewing_time"":6976}]",84006,2818,,,,,,,,,,,,,,,,,,,
,instructions,156877.0,0.0-1.1-0.1,"[{""page_index"":0,""viewing_time"":1984},{""page_index"":1,""viewing_time"":2488},{""page_index"":2,""viewing_time"":1476},{""page_index"":3,""viewing_time"":1811},{""page_index"":4,""viewing_time"":1428},{""page_index"":5,""viewing_time"":1009},{""page_index"":6,""viewing_time"":9738},{""page_index"":5,""viewing_time"":2121},{""page_index"":4,""viewing_time"":3553},{""page_index"":3,""viewing_time"":3640},{""page_index"":4,""viewing_time"":2218},{""page_index"":5,""viewing_time"":1188},{""page_index"":6,""viewing_time"":1562},{""page_index"":7,""viewing_time"":1385}]",35602,2818,,,,,,,,,,,,,,,,,,,
,instructions,180204.0,0.0-3.0-0.0,"[{""page_index"":0,""viewing_time"":6119}]",6120,2818,,,,,,,,,,,,,,,,,,,
,instructions,88707.0,0.0-1.0-0.0,"[{""page_index"":0,""viewing_time"":6718},{""page_index"":1,""viewing_time"":16135},{""page_index"":2,""viewing_time"":13271},{""page_index"":3,""viewing_time"":8136},{""page_index"":4,""viewing_time"":7048},{""page_index"":5,""viewing_time"":10856},{""page_index"":6,""viewing_time"":16079},{""page_index"":7,""viewing_time"":6360}]",84605,2761,,,,,,,,,,,,,,,,,,,
,instructions,123735.0,0.0-3.0-0.0,"[{""page_index"":0,""viewing_time"":8319}]",8319,2761,,,,,,,,,,,,,,,,,,,
,instructions,141119.0,0.0-1.0-0.0,"[{""page_index"":0,""viewing_time"":10682},{""page_index"":1,""viewing_time"":27467},{""page_index"":2,""viewing_time"":29114},{""page_index"":3,""viewing_time"":12608},{""page_index"":4,""viewing_time"":17927},{""page_index"":5,""viewing_time"":15049},{""page_index"":6,""viewing_time"":22405},{""page_index"":7,""viewing_time"":2863}]",138115,2762,,,,,,,,,,,,,,,,,,,
,instructions,212002.0,0.0-3.0-0.0,"[{""page_index"":0,""viewing_time"":2636}]",2636,2762,,,,,,,,,,,,,,,,,,,
,instructions,183839.0,0.0-1.0-0.0,"[{""page_index"":0,""viewing_time"":6709},{""page_index"":1,""viewing_time"":43307},{""page_index"":2,""viewing_time"":29596},{""page_index"":3,""viewing_time"":20924},{""page_index"":4,""viewing_time"":19018},{""page_index"":5,""viewing_time"":24896},{""page_index"":6,""viewing_time"":21571},{""page_index"":7,""viewing_time"":14225}]",180247,2719,,,,,,,,,,,,,,,,,,,
,instructions,281155.0,0.0-1.1-0.1,"[{""page_index"":0,""viewing_time"":8351},{""page_index"":1,""viewing_time"":13122},{""page_index"":2,""viewing_time"":16632},{""page_index"":3,""viewing_time"":7088},{""page_index"":4,""viewing_time"":1082},{""page_index"":5,""viewing_time"":508},{""page_index"":6,""viewing_time"":1388},{""page_index"":7,""viewing_time"":1186}]",49358,2719,,,,,,,,,,,,,,,,,,,
,instructions,376246.0,0.0-1.2-0.2,"[{""page_index"":0,""viewing_time"":1823},{""page_index"":1,""viewing_time"":1578},{""page_index"":2,""viewing_time"":3126},{""page_index"":3,""viewing_time"":13342},{""page_index"":4,""viewing_time"":9342},{""page_index"":5,""viewing_time"":7488},{""page_index"":6,""viewing_time"":31758},{""page_index"":7,""viewing_time"":2536}]",70993,2719,,,,,,,,,,,,,,,,,,,
,instructions,419063.0,0.0-3.0-0.0,"[{""page_index"":0,""viewing_time"":21151}]",21151,2719,,,,,,,,,,,,,,,,,,,
,instructions,106484.0,0.0-1.0-0.0,"[{""page_index"":0,""viewing_time"":6956},{""page_index"":1,""viewing_time"":12241},{""page_index"":0,""viewing_time"":1037},{""page_index"":1,""viewing_time"":497},{""page_index"":2,""viewing_time"":18607},{""page_index"":3,""viewing_time"":6424},{""page_index"":4,""viewing_time"":12001},{""page_index"":5,""viewing_time"":25432},{""page_index"":6,""viewing_time"":3440},{""page_index"":5,""viewing_time"":8527},{""page_index"":6,""viewing_time"":4177},{""page_index"":7,""viewing_time"":3010}]",102349,2635,,,,,,,,,,,,,,,,,,,
,instructions,137275.0,0.0-1.1-0.1,"[{""page_index"":0,""viewing_time"":1082},{""page_index"":1,""viewing_time"":869},{""page_index"":2,""viewing_time"":1231},{""page_index"":3,""viewing_time"":145},{""page_index"":4,""viewing_time"":152},{""page_index"":5,""viewing_time"":127},{""page_index"":6,""viewing_time"":136},{""page_index"":7,""viewing_time"":122}]",3864,2635,,,,,,,,,,,,,,,,,,,
,instructions,254281.0,0.0-1.2-0.2,"[{""page_index"":0,""viewing_time"":1103},{""page_index"":1,""viewing_time"":1641},{""page_index"":2,""viewing_time"":183},{""page_index"":3,""viewing_time"":161},{""page_index"":4,""viewing_time"":128},{""page_index"":5,""viewing_time"":134},{""page_index"":6,""viewing_time"":424},{""page_index"":7,""viewing_time"":354},{""page_index"":6,""viewing_time"":4151},{""page_index"":5,""viewing_time"":937},{""page_index"":4,""viewing_time"":1007},{""page_index"":3,""viewing_time"":1473},{""page_index"":2,""viewing_time"":727},{""page_index"":1,""viewing_time"":4617},{""page_index"":2,""viewing_time"":344},{""page_index"":3,""viewing_time"":1225},{""page_index"":2,""viewing_time"":11205},{""page_index"":3,""viewing_time"":35491},{""page_index"":4,""viewing_time"":6993},{""page_index"":5,""viewing_time"":2436},{""page_index"":6,""viewing_time"":8996},{""page_index"":7,""viewing_time"":893}]",84623,2635,,,,,,,,,,,,,,,,,,,
,instructions,295444.0,0.0-3.0-0.0,"[{""page_index"":0,""viewing_time"":22445}]",22446,2635,,,,,,,,,,,,,,,,,,,
,instructions,90130.0,0.0-1.0-0.0,"[{""page_index"":0,""viewing_time"":6228},{""page_index"":1,""viewing_time"":16833},{""page_index"":2,""viewing_time"":16138},{""page_index"":3,""viewing_time"":8758},{""page_index"":4,""viewing_time"":6422},{""page_index"":5,""viewing_time"":8634},{""page_index"":6,""viewing_time"":12735},{""page_index"":7,""viewing_time"":10578}]",86327,2636,,,,,,,,,,,,,,,,,,,
