success,trial_type,time_elapsed,internal_node_id,view_history,rt,pid,responses,correct,revealed_states,num_clicks_accrued,state_rewards,trial_id,block,trial_index,score,simulation_mode,rewards,path,actions,action_times,queries,displayed_time,trial_time,stimulus,button_pressed
,survey-html-form,1906577.0,0.0-3.0-6.0,,24333.30000001192,2585,"{""gender"":""female"",""age"":""39"",""colorblind"":""0"",""effort"":""0""}",,,,,,,,,,,,,,,,,,
,survey-html-form,2941752.0,0.0-3.0-6.0,,32107.80000001192,2810,"{""gender"":""female"",""age"":""46"",""colorblind"":""0"",""effort"":""1""}",,,,,,,,,,,,,,,,,,
,survey-html-form,1068234.0,0.0-3.0-6.0,,16230.100000023842,2747,"{""gender"":""female"",""age"":""44"",""colorblind"":""0"",""effort"":""0""}",,,,,,,,,,,,,,,,,,
,survey-html-form,2295254.0,0.0-3.0-6.0,,22361.60000000149,2482,"{""gender"":""female"",""age"":""30"",""colorblind"":""0"",""effort"":""0""}",,,,,,,,,,,,,,,,,,
,survey-html-form,2166011.0,0.0-3.0-6.0,,17051,2522,"{""gender"":""female"",""age"":""33"",""colorblind"":""0"",""effort"":""1""}",,,,,,,,,,,,,,,,,,
,survey-html-form,1160883.0,0.0-3.0-6.0,,12890.600000023842,2410,"{""gender"":""female"",""age"":""36"",""colorblind"":""0"",""effort"":""1""}",,,,,,,,,,,,,,,,,,
,survey-html-form,1148728.0,0.0-3.0-7.0,,22713.699999999255,2451,"{""gender"":""female"",""age"":""51"",""colorblind"":""0"",""effort"":""0""}",,,,,,,,,,,,,,,,,,
,survey-html-form,2369690.0,0.0-3.0-6.0,,23079.5,2816,"{""gender"":""female"",""age"":""34"",""colorblind"":""0"",""effort"":""0""}",,,,,,,,,,,,,,,,,,
,survey-html-form,1200620.0,0.0-3.0-6.0,,31100.300000071526,2755,"{""gender"":""female"",""age"":""61"",""colorblind"":""0"",""effort"":""0""}",,,,,,,,,,,,,,,,,,
,survey-html-form,1288719.0,0.0-3.0-6.0,,17358,2716,"{""gender"":""female"",""age"":""33"",""colorblind"":""0"",""effort"":""0""}",,,,,,,,,,,,,,,,,,
,survey-html-form,920116.0,0.0-3.0-6.0,,20624.09999999404,2717,"{""gender"":""male"",""age"":""60"",""colorblind"":""0"",""effort"":""0""}",,,,,,,,,,,,,,,,,,
,survey-html-form,1669765.0,0.0-3.0-6.0,,30608.100000023842,2627,"{""gender"":""female"",""age"":""46"",""colorblind"":""0"",""effort"":""0""}",,,,,,,,,,,,,,,,,,
,survey-html-form,1421912.0,0.0-3.0-6.0,,30838,2628,"{""gender"":""female"",""age"":""68"",""colorblind"":""0"",""effort"":""0""}",,,,,,,,,,,,,,,,,,
,survey-html-form,1237359.0,0.0-3.0-6.0,,18776.89999999851,2629,"{""gender"":""male"",""age"":""31"",""colorblind"":""0"",""effort"":""0""}",,,,,,,,,,,,,,,,,,
,survey-html-form,1370941.0,0.0-3.0-6.0,,23959.600000023842,2601,"{""gender"":""male"",""age"":""39"",""colorblind"":""0"",""effort"":""0""}",,,,,,,,,,,,,,,,,,
,survey-html-form,1033222.0,0.0-3.0-6.0,,9906.399999976158,2537,"{""gender"":""female"",""age"":""33"",""colorblind"":""0"",""effort"":""0""}",,,,,,,,,,,,,,,,,,
,survey-html-form,1433435.0,0.0-3.0-6.0,,30379,2538,"{""gender"":""male"",""age"":""36"",""colorblind"":""0"",""effort"":""0""}",,,,,,,,,,,,,,,,,,
,survey-html-form,1398819.0,0.0-3.0-6.0,,17901.80000001192,2505,"{""gender"":""male"",""age"":""57"",""colorblind"":""0"",""effort"":""0""}",,,,,,,,,,,,,,,,,,
,survey-html-form,1382964.0,0.0-3.0-6.0,,19417.20000001788,2422,"{""gender"":""female"",""age"":""41"",""colorblind"":""0"",""effort"":""0""}",,,,,,,,,,,,,,,,,,
,survey-html-form,1056358.0,0.0-3.0-6.0,,21589.19999998808,2415,"{""gender"":""male"",""age"":""60"",""colorblind"":""0"",""effort"":""0""}",,,,,,,,,,,,,,,,,,
,survey-html-form,1103276.0,0.0-3.0-6.0,,13147.800000011921,2394,"{""gender"":""female"",""age"":""49"",""colorblind"":""0"",""effort"":""0""}",,,,,,,,,,,,,,,,,,
,survey-html-form,1948195.0,0.0-3.0-6.0,,32850.39999999991,2756,"{""gender"":""female"",""age"":""40"",""colorblind"":""0"",""effort"":""0""}",,,,,,,,,,,,,,,,,,
,survey-html-form,1285396.0,0.0-3.0-6.0,,16687.19999998808,2758,"{""gender"":""male"",""age"":""32"",""colorblind"":""0"",""effort"":""0""}",,,,,,,,,,,,,,,,,,
,survey-html-form,1792304.0,0.0-3.0-6.0,,26059.29999998212,2759,"{""gender"":""male"",""age"":""34"",""colorblind"":""0"",""effort"":""0""}",,,,,,,,,,,,,,,,,,
,survey-html-form,3977037.0,0.0-3.0-6.0,,34073.10000002384,2630,"{""gender"":""male"",""age"":""46"",""colorblind"":""0"",""effort"":""0""}",,,,,,,,,,,,,,,,,,
,survey-html-form,1655237.0,0.0-3.0-6.0,,23238.700000000186,2631,"{""gender"":""male"",""age"":""51"",""colorblind"":""0"",""effort"":""0""}",,,,,,,,,,,,,,,,,,
,survey-html-form,1639717.0,0.0-3.0-6.0,,32093.30000001192,2597,"{""gender"":""male"",""age"":""51"",""colorblind"":""0"",""effort"":""0""}",,,,,,,,,,,,,,,,,,
,survey-html-form,2004199.0,0.0-3.0-6.0,,16692,2584,"{""gender"":""male"",""age"":""35"",""colorblind"":""0"",""effort"":""0""}",,,,,,,,,,,,,,,,,,
,survey-html-form,1631314.0,0.0-3.0-6.0,,33094,2514,"{""gender"":""male"",""age"":""44"",""colorblind"":""0"",""effort"":""0""}",,,,,,,,,,,,,,,,,,
,survey-html-form,1060114.0,0.0-3.0-6.0,,25262,2511,"{""gender"":""male"",""age"":""35"",""colorblind"":""0"",""effort"":""0""}",,,,,,,,,,,,,,,,,,
,survey-html-form,3460912.0,0.0-3.0-6.0,,27370.899999976158,2506,"{""gender"":""male"",""age"":""49"",""colorblind"":""0"",""effort"":""0""}",,,,,,,,,,,,,,,,,,
,survey-html-form,1053084.0,0.0-3.0-6.0,,13763,2467,"{""gender"":""male"",""age"":""39"",""colorblind"":""0"",""effort"":""0""}",,,,,,,,,,,,,,,,,,
,survey-html-form,2641670.0,0.0-3.0-6.0,,43621.59999999404,1038,"{""gender"":""female"",""age"":""58"",""colorblind"":""0"",""effort"":""0""}",,,,,,,,,,,,,,,,,,
,survey-html-form,4260153.0,0.0-3.0-6.0,,12646,2395,"{""gender"":""female"",""age"":""43"",""colorblind"":""0"",""effort"":""0""}",,,,,,,,,,,,,,,,,,
,survey-html-form,1378887.0,0.0-3.0-6.0,,14877.600000023842,2817,"{""gender"":""male"",""age"":""51"",""colorblind"":""0"",""effort"":""0""}",,,,,,,,,,,,,,,,,,
,survey-html-form,1451328.0,0.0-3.0-6.0,,57750.79999999702,2760,"{""gender"":""other"",""age"":""55"",""colorblind"":""0"",""effort"":""0""}",,,,,,,,,,,,,,,,,,
,survey-html-form,1588717.0,0.0-3.0-6.0,,20546.30000001192,244,"{""gender"":""female"",""age"":""28"",""colorblind"":""0"",""effort"":""0""}",,,,,,,,,,,,,,,,,,
,survey-html-form,1042295.0,0.0-3.0-6.0,,11382,2718,"{""gender"":""male"",""age"":""34"",""colorblind"":""0"",""effort"":""1""}",,,,,,,,,,,,,,,,,,
,survey-html-form,898461.0,0.0-3.0-6.0,,15412.899999976158,2632,"{""gender"":""female"",""age"":""32"",""colorblind"":""0"",""effort"":""0""}",,,,,,,,,,,,,,,,,,
,survey-html-form,1886519.0,0.0-3.0-6.0,,15230.60000000149,2633,"{""gender"":""female"",""age"":""32"",""colorblind"":""0"",""effort"":""1""}",,,,,,,,,,,,,,,,,,
,survey-html-form,3040668.0,0.0-3.0-6.0,,26250,2634,"{""gender"":""female"",""age"":""33"",""colorblind"":""0"",""effort"":""0""}",,,,,,,,,,,,,,,,,,
,survey-html-form,1107779.0,0.0-3.0-6.0,,15157.89999999851,2539,"{""gender"":""male"",""age"":""37"",""colorblind"":""0"",""effort"":""0""}",,,,,,,,,,,,,,,,,,
,survey-html-form,1194420.0,0.0-3.0-6.0,,32373,2540,"{""gender"":""female"",""age"":""56"",""colorblind"":""0"",""effort"":""0""}",,,,,,,,,,,,,,,,,,
,survey-html-form,1406145.0,0.0-3.0-6.0,,14972.300000011921,2515,"{""gender"":""female"",""age"":""44"",""colorblind"":""0"",""effort"":""0""}",,,,,,,,,,,,,,,,,,
,survey-html-form,1029446.0,0.0-3.0-6.0,,13622.199999988079,2503,"{""gender"":""male"",""age"":""33"",""colorblind"":""0"",""effort"":""0""}",,,,,,,,,,,,,,,,,,
,survey-html-form,1403980.0,0.0-3.0-6.0,,15362.400000035763,2468,"{""gender"":""female"",""age"":""53"",""colorblind"":""0"",""effort"":""0""}",,,,,,,,,,,,,,,,,,
,survey-html-form,1327383.0,0.0-3.0-6.0,,35818.39999999851,2396,"{""gender"":""female"",""age"":""31"",""colorblind"":""0"",""effort"":""0""}",,,,,,,,,,,,,,,,,,
,survey-html-form,999860.0,0.0-3.0-6.0,,32332.800000000745,1715,"{""gender"":""male"",""age"":""30"",""colorblind"":""0"",""effort"":""0""}",,,,,,,,,,,,,,,,,,
,survey-html-form,1219551.0,0.0-3.0-6.0,,19067.199999928474,2818,"{""gender"":""male"",""age"":""37"",""colorblind"":""0"",""effort"":""0""}",,,,,,,,,,,,,,,,,,
,survey-html-form,1943596.0,0.0-3.0-6.0,,38042.60000002384,2761,"{""gender"":""female"",""age"":""59"",""colorblind"":""0"",""effort"":""0""}",,,,,,,,,,,,,,,,,,
,survey-html-form,820914.0,0.0-3.0-6.0,,15537,2762,"{""gender"":""male"",""age"":""31"",""colorblind"":""0"",""effort"":""0""}",,,,,,,,,,,,,,,,,,
,survey-html-form,1654582.0,0.0-3.0-6.0,,24750,2719,"{""gender"":""male"",""age"":""41"",""colorblind"":""0"",""effort"":""0""}",,,,,,,,,,,,,,,,,,
,survey-html-form,1259237.0,0.0-3.0-6.0,,30060,2635,"{""gender"":""male"",""age"":""29"",""colorblind"":""2"",""effort"":""0""}",,,,,,,,,,,,,,,,,,
,survey-html-form,957566.0,0.0-3.0-6.0,,14154,2636,"{""gender"":""female"",""age"":""34"",""colorblind"":""0"",""effort"":""0""}",,,,,,,,,,,,,,,,,,
,survey-html-form,2288292.0,0.0-3.0-6.0,,28660.399999976158,2637,"{""gender"":""male"",""age"":""44"",""colorblind"":""0"",""effort"":""0""}",,,,,,,,,,,,,,,,,,
,survey-html-form,1216530.0,0.0-3.0-6.0,,16144.199999988079,2586,"{""gender"":""female"",""age"":""70"",""colorblind"":""0"",""effort"":""0""}",,,,,,,,,,,,,,,,,,
,survey-html-form,1361368.0,0.0-3.0-6.0,,10978.600000023842,2541,"{""gender"":""female"",""age"":""46"",""colorblind"":""0"",""effort"":""0""}",,,,,,,,,,,,,,,,,,
,survey-html-form,1461934.0,0.0-3.0-6.0,,15560,2507,"{""gender"":""male"",""age"":""41"",""colorblind"":""0"",""effort"":""0""}",,,,,,,,,,,,,,,,,,
,survey-html-form,2983013.0,0.0-3.0-6.0,,30179.5,2490,"{""gender"":""male"",""age"":""71"",""colorblind"":""0"",""effort"":""0""}",,,,,,,,,,,,,,,,,,
,survey-html-form,802109.0,0.0-3.0-6.0,,20037,2466,"{""gender"":""male"",""age"":""25"",""colorblind"":""0"",""effort"":""1""}",,,,,,,,,,,,,,,,,,
,survey-html-form,1792361.0,0.0-3.0-6.0,,13587.40000000596,2397,"{""gender"":""female"",""age"":""35"",""colorblind"":""0"",""effort"":""0""}",,,,,,,,,,,,,,,,,,
,survey-html-form,1905760.0,0.0-3.0-6.0,,17174.69999998808,2384,"{""gender"":""female"",""age"":""57"",""colorblind"":""0"",""effort"":""0""}",,,,,,,,,,,,,,,,,,
,survey-html-form,3306244.0,0.0-3.0-6.0,,21366.20000000298,2763,"{""gender"":""male"",""age"":""66"",""colorblind"":""0"",""effort"":""0""}",,,,,,,,,,,,,,,,,,
,survey-html-form,1967204.0,0.0-3.0-6.0,,17554,2764,"{""gender"":""female"",""age"":""51"",""colorblind"":""0"",""effort"":""0""}",,,,,,,,,,,,,,,,,,
,survey-html-form,1123575.0,0.0-3.0-6.0,,20028.399999976158,2720,"{""gender"":""female"",""age"":""44"",""colorblind"":""0"",""effort"":""0""}",,,,,,,,,,,,,,,,,,
,survey-html-form,3111720.0,0.0-3.0-6.0,,28956.19999998808,2638,"{""gender"":""female"",""age"":""34"",""colorblind"":""0"",""effort"":""0""}",,,,,,,,,,,,,,,,,,
,survey-html-form,1720343.0,0.0-3.0-6.0,,13400.699999988079,2639,"{""gender"":""female"",""age"":""29"",""colorblind"":""0"",""effort"":""0""}",,,,,,,,,,,,,,,,,,
,survey-html-form,2116718.0,0.0-3.0-6.0,,23348.09999999404,2542,"{""gender"":""male"",""age"":""36"",""colorblind"":""0"",""effort"":""0""}",,,,,,,,,,,,,,,,,,
,survey-html-form,2329199.0,0.0-3.0-6.0,,16668.5,2543,"{""gender"":""female"",""age"":""21"",""colorblind"":""0"",""effort"":""0""}",,,,,,,,,,,,,,,,,,
,survey-html-form,2362779.0,0.0-3.0-6.0,,25433.299999952316,2491,"{""gender"":""female"",""age"":""59"",""colorblind"":""0"",""effort"":""0""}",,,,,,,,,,,,,,,,,,
,survey-html-form,1796053.0,0.0-3.0-6.0,,20177,2480,"{""gender"":""female"",""age"":""34"",""colorblind"":""0"",""effort"":""1""}",,,,,,,,,,,,,,,,,,
,survey-html-form,2864894.0,0.0-3.0-6.0,,14447.5,2469,"{""gender"":""male"",""age"":""37"",""colorblind"":""0"",""effort"":""0""}",,,,,,,,,,,,,,,,,,
,survey-html-form,1065450.0,0.0-3.0-6.0,,25147.455000013113,2445,"{""gender"":""male"",""age"":""31"",""colorblind"":""0"",""effort"":""0""}",,,,,,,,,,,,,,,,,,
,survey-html-form,1433582.0,0.0-3.0-6.0,,30133,978,"{""gender"":""female"",""age"":""69"",""colorblind"":""0"",""effort"":""0""}",,,,,,,,,,,,,,,,,,
,survey-html-form,1953292.0,0.0-3.0-6.0,,10340.000000000233,2819,"{""gender"":""female"",""age"":""29"",""colorblind"":""0"",""effort"":""0""}",,,,,,,,,,,,,,,,,,
,survey-html-form,912189.0,0.0-3.0-6.0,,17482,2765,"{""gender"":""female"",""age"":""51"",""colorblind"":""0"",""effort"":""0""}",,,,,,,,,,,,,,,,,,
,survey-html-form,1830582.0,0.0-3.0-6.0,,12989.09999999404,2766,"{""gender"":""female"",""age"":""24"",""colorblind"":""0"",""effort"":""0""}",,,,,,,,,,,,,,,,,,
,survey-html-form,1744421.0,0.0-3.0-6.0,,27130,2721,"{""gender"":""other"",""age"":""41"",""colorblind"":""0"",""effort"":""0""}",,,,,,,,,,,,,,,,,,
,survey-html-form,1108076.0,0.0-3.0-6.0,,21470.100000023842,2697,"{""gender"":""female"",""age"":""62"",""colorblind"":""0"",""effort"":""0""}",,,,,,,,,,,,,,,,,,
,survey-html-form,1529835.0,0.0-3.0-6.0,,31287.800000000745,2641,"{""gender"":""female"",""age"":""31"",""colorblind"":""0"",""effort"":""1""}",,,,,,,,,,,,,,,,,,
,survey-html-form,1504490.0,0.0-3.0-6.0,,16605.69999998808,2642,"{""gender"":""female"",""age"":""31"",""colorblind"":""0"",""effort"":""0""}",,,,,,,,,,,,,,,,,,
,survey-html-form,1762117.0,0.0-3.0-6.0,,17652,2602,"{""gender"":""male"",""age"":""51"",""colorblind"":""0"",""effort"":""0""}",,,,,,,,,,,,,,,,,,
,survey-html-form,1352329.0,0.0-3.0-6.0,,30724,2544,"{""gender"":""female"",""age"":""47"",""colorblind"":""0"",""effort"":""0""}",,,,,,,,,,,,,,,,,,
,survey-html-form,892038.0,0.0-3.0-6.0,,17311.40000000596,2516,"{""gender"":""male"",""age"":""29"",""colorblind"":""0"",""effort"":""0""}",,,,,,,,,,,,,,,,,,
,survey-html-form,1168667.0,0.0-3.0-6.0,,17924.80000001192,2481,"{""gender"":""female"",""age"":""23"",""colorblind"":""0"",""effort"":""0""}",,,,,,,,,,,,,,,,,,
,survey-html-form,2059156.0,0.0-3.0-6.0,,29221.70000000298,1146,"{""gender"":""male"",""age"":""78"",""colorblind"":""0"",""effort"":""0""}",,,,,,,,,,,,,,,,,,
,survey-html-form,2353397.0,0.0-3.0-6.0,,18850.80000001192,2470,"{""gender"":""male"",""age"":""41"",""colorblind"":""0"",""effort"":""0""}",,,,,,,,,,,,,,,,,,
,survey-html-form,1847775.0,0.0-3.0-6.0,,21852.300000000745,2398,"{""gender"":""female"",""age"":""44"",""colorblind"":""0"",""effort"":""0""}",,,,,,,,,,,,,,,,,,
,survey-html-form,3551609.0,0.0-3.0-6.0,,21982,2820,"{""gender"":""male"",""age"":""22"",""colorblind"":""0"",""effort"":""0""}",,,,,,,,,,,,,,,,,,
,survey-html-form,4163908.0,0.0-3.0-6.0,,14212.5,2767,"{""gender"":""female"",""age"":""21"",""colorblind"":""0"",""effort"":""0""}",,,,,,,,,,,,,,,,,,
,survey-html-form,3726139.0,0.0-3.0-6.0,,57174.90000000037,2768,"{""gender"":""female"",""age"":""28"",""colorblind"":""0"",""effort"":""0""}",,,,,,,,,,,,,,,,,,
,survey-html-form,1428305.0,0.0-3.0-6.0,,23039.90000000596,2722,"{""gender"":""female"",""age"":""29"",""colorblind"":""2"",""effort"":""0""}",,,,,,,,,,,,,,,,,,
,survey-html-form,1187624.0,0.0-3.0-6.0,,19645.199999999255,2705,"{""gender"":""female"",""age"":""22"",""colorblind"":""0"",""effort"":""0""}",,,,,,,,,,,,,,,,,,
,survey-html-form,2575620.0,0.0-3.0-6.0,,13728.5,2643,"{""gender"":""female"",""age"":""33"",""colorblind"":""0"",""effort"":""0""}",,,,,,,,,,,,,,,,,,
,survey-html-form,1501086.0,0.0-3.0-6.0,,41772,2587,"{""gender"":""female"",""age"":""52"",""colorblind"":""0"",""effort"":""0""}",,,,,,,,,,,,,,,,,,
,survey-html-form,1689074.0,0.0-3.0-6.0,,15582,2545,"{""gender"":""female"",""age"":""39"",""colorblind"":""0"",""effort"":""0""}",,,,,,,,,,,,,,,,,,
,survey-html-form,2516544.0,0.0-3.0-6.0,,19072.900000095367,2588,"{""gender"":""male"",""age"":""43"",""colorblind"":""0"",""effort"":""0""}",,,,,,,,,,,,,,,,,,
,survey-html-form,2817720.0,0.0-3.0-6.0,,17023.199999999255,2546,"{""gender"":""female"",""age"":""40"",""colorblind"":""0"",""effort"":""0""}",,,,,,,,,,,,,,,,,,
,survey-html-form,2871384.0,0.0-3.0-6.0,,16670.5,2460,"{""gender"":""female"",""age"":""60"",""colorblind"":""0"",""effort"":""0""}",,,,,,,,,,,,,,,,,,
,survey-html-form,2495226.0,0.0-3.0-6.0,,12790.700000047684,2459,"{""gender"":""female"",""age"":""38"",""colorblind"":""0"",""effort"":""1""}",,,,,,,,,,,,,,,,,,
,survey-html-form,2453228.0,0.0-3.0-6.0,,26562.100000023842,2447,"{""gender"":""female"",""age"":""59"",""colorblind"":""0"",""effort"":""0""}",,,,,,,,,,,,,,,,,,
,survey-html-form,2510768.0,0.0-3.0-6.0,,28636,2431,"{""gender"":""male"",""age"":""57"",""colorblind"":""0"",""effort"":""0""}",,,,,,,,,,,,,,,,,,
,survey-html-form,1673576.0,0.0-3.0-6.0,,24033.5,2821,"{""gender"":""female"",""age"":""29"",""colorblind"":""0"",""effort"":""0""}",,,,,,,,,,,,,,,,,,
,survey-html-form,3747569.0,0.0-3.0-6.0,,27537.89999999851,823,"{""gender"":""female"",""age"":""29"",""colorblind"":""0"",""effort"":""0""}",,,,,,,,,,,,,,,,,,
,survey-html-form,1859423.0,0.0-3.0-6.0,,13595.899999976158,2740,"{""gender"":""female"",""age"":""40"",""colorblind"":""0"",""effort"":""0""}",,,,,,,,,,,,,,,,,,
,survey-html-form,4326339.0,0.0-3.0-6.0,,11342.200000047684,2723,"{""gender"":""male"",""age"":""45"",""colorblind"":""1"",""effort"":""0""}",,,,,,,,,,,,,,,,,,
,survey-html-form,2290552.0,0.0-3.0-6.0,,28060.799999952316,2706,"{""gender"":""male"",""age"":""47"",""colorblind"":""0"",""effort"":""0""}",,,,,,,,,,,,,,,,,,
,survey-html-form,5277482.0,0.0-3.0-6.0,,29802,2645,"{""gender"":""male"",""age"":""39"",""colorblind"":""0"",""effort"":""0""}",,,,,,,,,,,,,,,,,,
,survey-html-form,1503043.0,0.0-3.0-6.0,,22672.900000035763,2598,"{""gender"":""female"",""age"":""57"",""colorblind"":""0"",""effort"":""0""}",,,,,,,,,,,,,,,,,,
,survey-html-form,3101154.0,0.0-3.0-6.0,,20268,2589,"{""gender"":""female"",""age"":""37"",""colorblind"":""0"",""effort"":""1""}",,,,,,,,,,,,,,,,,,
,survey-html-form,1152606.0,0.0-3.0-6.0,,11936.59999999404,2547,"{""gender"":""male"",""age"":""38"",""colorblind"":""0"",""effort"":""0""}",,,,,,,,,,,,,,,,,,
,survey-html-form,1347302.0,0.0-3.0-6.0,,24853.100000023842,2548,"{""gender"":""female"",""age"":""48"",""colorblind"":""0"",""effort"":""0""}",,,,,,,,,,,,,,,,,,
,survey-html-form,920027.0,0.0-3.0-6.0,,16460.200000047684,2461,"{""gender"":""male"",""age"":""34"",""colorblind"":""0"",""effort"":""0""}",,,,,,,,,,,,,,,,,,
,survey-html-form,2620544.0,0.0-3.0-6.0,,21343.700000047684,2448,"{""gender"":""male"",""age"":""46"",""colorblind"":""0"",""effort"":""0""}",,,,,,,,,,,,,,,,,,
,survey-html-form,4389861.0,0.0-3.0-6.0,,14567.300000071526,2423,"{""gender"":""female"",""age"":""27"",""colorblind"":""0"",""effort"":""0""}",,,,,,,,,,,,,,,,,,
,survey-html-form,924068.0,0.0-3.0-6.0,,17706.040000000037,2385,"{""gender"":""male"",""age"":""33"",""colorblind"":""0"",""effort"":""0""}",,,,,,,,,,,,,,,,,,
,survey-html-form,1323013.0,0.0-3.0-6.0,,24902,2822,"{""gender"":""male"",""age"":""36"",""colorblind"":""0"",""effort"":""0""}",,,,,,,,,,,,,,,,,,
,survey-html-form,1982648.0,0.0-3.0-6.0,,19345.69999998808,1732,"{""gender"":""male"",""age"":""46"",""colorblind"":""0"",""effort"":""0""}",,,,,,,,,,,,,,,,,,
,survey-html-form,3050569.0,0.0-3.0-6.0,,18949.199999928474,1713,"{""gender"":""male"",""age"":""54"",""colorblind"":""0"",""effort"":""0""}",,,,,,,,,,,,,,,,,,
,survey-html-form,2140303.0,0.0-3.0-6.0,,14151.600000143051,2707,"{""gender"":""male"",""age"":""45"",""colorblind"":""0"",""effort"":""1""}",,,,,,,,,,,,,,,,,,
,survey-html-form,815290.0,0.0-3.0-6.0,,22970,2646,"{""gender"":""female"",""age"":""28"",""colorblind"":""0"",""effort"":""1""}",,,,,,,,,,,,,,,,,,
,survey-html-form,1581093.0,0.0-3.0-6.0,,13717.199999988079,2647,"{""gender"":""female"",""age"":""32"",""colorblind"":""0"",""effort"":""0""}",,,,,,,,,,,,,,,,,,
,survey-html-form,2783513.0,0.0-3.0-6.0,,99263,2604,"{""gender"":""male"",""age"":""42"",""colorblind"":""0"",""effort"":""1""}",,,,,,,,,,,,,,,,,,
,survey-html-form,856340.0,0.0-3.0-6.0,,12616.100000023842,2590,"{""gender"":""male"",""age"":""36"",""colorblind"":""0"",""effort"":""0""}",,,,,,,,,,,,,,,,,,
,survey-html-form,1434634.0,0.0-3.0-6.0,,12521.134999999078,2549,"{""gender"":""female"",""age"":""37"",""colorblind"":""0"",""effort"":""0""}",,,,,,,,,,,,,,,,,,
,survey-html-form,1430672.0,0.0-3.0-6.0,,31017.399999976158,2550,"{""gender"":""female"",""age"":""35"",""colorblind"":""0"",""effort"":""0""}",,,,,,,,,,,,,,,,,,
,survey-html-form,1336294.0,0.0-3.0-6.0,,21781.5,2492,"{""gender"":""female"",""age"":""44"",""colorblind"":""0"",""effort"":""0""}",,,,,,,,,,,,,,,,,,
,survey-html-form,1947965.0,0.0-3.0-6.0,,20652.600000023842,2476,"{""gender"":""female"",""age"":""70"",""colorblind"":""0"",""effort"":""0""}",,,,,,,,,,,,,,,,,,
,survey-html-form,2453629.0,0.0-3.0-6.0,,12213,2432,"{""gender"":""female"",""age"":""46"",""colorblind"":""0"",""effort"":""0""}",,,,,,,,,,,,,,,,,,
,survey-html-form,970306.0,0.0-3.0-6.0,,19858.09999999404,2386,"{""gender"":""female"",""age"":""44"",""colorblind"":""0"",""effort"":""0""}",,,,,,,,,,,,,,,,,,
,survey-html-form,1449944.0,0.0-3.0-6.0,,21939,2770,"{""gender"":""female"",""age"":""53"",""colorblind"":""0"",""effort"":""0""}",,,,,,,,,,,,,,,,,,
,survey-html-form,2991485.0,0.0-3.0-6.0,,23876,2741,"{""gender"":""female"",""age"":""57"",""colorblind"":""0"",""effort"":""0""}",,,,,,,,,,,,,,,,,,
,survey-html-form,1594231.0,0.0-3.0-6.0,,15468.799999952316,2724,"{""gender"":""female"",""age"":""29"",""colorblind"":""0"",""effort"":""0""}",,,,,,,,,,,,,,,,,,
,survey-html-form,1795493.0,0.0-3.0-6.0,,14790.899999976158,2648,"{""gender"":""female"",""age"":""38"",""colorblind"":""0"",""effort"":""0""}",,,,,,,,,,,,,,,,,,
,survey-html-form,4781026.0,0.0-3.0-6.0,,18339.69999998808,2649,"{""gender"":""female"",""age"":""33"",""colorblind"":""0"",""effort"":""1""}",,,,,,,,,,,,,,,,,,
,survey-html-form,2027953.0,0.0-3.0-6.0,,14525.39999999851,2605,"{""gender"":""female"",""age"":""22"",""colorblind"":""0"",""effort"":""0""}",,,,,,,,,,,,,,,,,,
,survey-html-form,3579699.0,0.0-3.0-6.0,,25772,2591,"{""gender"":""female"",""age"":""52"",""colorblind"":""0"",""effort"":""0""}",,,,,,,,,,,,,,,,,,
,survey-html-form,3518437.0,0.0-3.0-6.0,,10679,2551,"{""gender"":""female"",""age"":""26"",""colorblind"":""0"",""effort"":""0""}",,,,,,,,,,,,,,,,,,
,survey-html-form,1827216.0,0.0-3.0-6.0,,30348.10000000149,2517,"{""gender"":""female"",""age"":""46"",""colorblind"":""0"",""effort"":""0""}",,,,,,,,,,,,,,,,,,
,survey-html-form,3973711.0,0.0-3.0-6.0,,16985.90000000596,2483,"{""gender"":""male"",""age"":""51"",""colorblind"":""0"",""effort"":""0""}",,,,,,,,,,,,,,,,,,
,survey-html-form,1358001.0,0.0-3.0-6.0,,15153.69999999553,2449,"{""gender"":""male"",""age"":""61"",""colorblind"":""0"",""effort"":""0""}",,,,,,,,,,,,,,,,,,
,survey-html-form,1047680.0,0.0-3.0-6.0,,13540.199999988079,2424,"{""gender"":""male"",""age"":""31"",""colorblind"":""0"",""effort"":""0""}",,,,,,,,,,,,,,,,,,
,survey-html-form,3664759.0,0.0-3.0-6.0,,19596.59999999404,2399,"{""gender"":""male"",""age"":""28"",""colorblind"":""0"",""effort"":""0""}",,,,,,,,,,,,,,,,,,
,survey-html-form,995446.0,0.0-3.0-6.0,,18079,2771,"{""gender"":""female"",""age"":""54"",""colorblind"":""0"",""effort"":""0""}",,,,,,,,,,,,,,,,,,
,survey-html-form,3539953.0,0.0-3.0-6.0,,12905,2772,"{""gender"":""female"",""age"":""25"",""colorblind"":""0"",""effort"":""0""}",,,,,,,,,,,,,,,,,,
,survey-html-form,3155938.0,0.0-3.0-6.0,,27779.899999976158,2725,"{""gender"":""female"",""age"":""58"",""colorblind"":""0"",""effort"":""0""}",,,,,,,,,,,,,,,,,,
,survey-html-form,1486640.0,0.0-3.0-6.0,,29643.5,2726,"{""gender"":""female"",""age"":""31"",""colorblind"":""0"",""effort"":""0""}",,,,,,,,,,,,,,,,,,
,survey-html-form,3881063.0,0.0-3.0-6.0,,25563.19999998808,2695,"{""gender"":""female"",""age"":""34"",""colorblind"":""0"",""effort"":""0""}",,,,,,,,,,,,,,,,,,
,survey-html-form,1509609.0,0.0-3.0-6.0,,17199.20000000298,2650,"{""gender"":""female"",""age"":""33"",""colorblind"":""0"",""effort"":""0""}",,,,,,,,,,,,,,,,,,
,survey-html-form,838571.0,0.0-3.0-6.0,,23904.899999976158,2651,"{""gender"":""female"",""age"":""53"",""colorblind"":""0"",""effort"":""0""}",,,,,,,,,,,,,,,,,,
,survey-html-form,2529066.0,0.0-3.0-6.0,,11396.900000035763,2606,"{""gender"":""female"",""age"":""34"",""colorblind"":""0"",""effort"":""0""}",,,,,,,,,,,,,,,,,,
,survey-html-form,1494436.0,0.0-3.0-6.0,,9243.400000035763,2552,"{""gender"":""female"",""age"":""30"",""colorblind"":""0"",""effort"":""0""}",,,,,,,,,,,,,,,,,,
,survey-html-form,760037.0,0.0-3.0-6.0,,14301.5,1759,"{""gender"":""male"",""age"":""38"",""colorblind"":""0"",""effort"":""0""}",,,,,,,,,,,,,,,,,,
,survey-html-form,1887024.0,0.0-3.0-6.0,,19147.900000035763,2484,"{""gender"":""female"",""age"":""34"",""colorblind"":""0"",""effort"":""1""}",,,,,,,,,,,,,,,,,,
,survey-html-form,1069761.0,0.0-3.0-6.0,,22989.900000000373,2477,"{""gender"":""male"",""age"":""68"",""colorblind"":""0"",""effort"":""0""}",,,,,,,,,,,,,,,,,,
,survey-html-form,1282038.0,0.0-3.0-6.0,,14314.800000071526,2420,"{""gender"":""male"",""age"":""23"",""colorblind"":""0"",""effort"":""0""}",,,,,,,,,,,,,,,,,,
,survey-html-form,1740044.0,0.0-3.0-6.0,,19002.300000190735,2416,"{""gender"":""male"",""age"":""32"",""colorblind"":""0"",""effort"":""1""}",,,,,,,,,,,,,,,,,,
,survey-html-form,5243648.0,0.0-3.0-6.0,,14999.5,2773,"{""gender"":""female"",""age"":""33"",""colorblind"":""0"",""effort"":""3""}",,,,,,,,,,,,,,,,,,
,survey-html-form,2025877.0,0.0-3.0-6.0,,23669.599999999627,2774,"{""gender"":""female"",""age"":""75"",""colorblind"":""0"",""effort"":""0""}",,,,,,,,,,,,,,,,,,
,survey-html-form,943001.0,0.0-3.0-6.0,,20922,2775,"{""gender"":""female"",""age"":""24"",""colorblind"":""0"",""effort"":""0""}",,,,,,,,,,,,,,,,,,
,survey-html-form,1391313.0,0.0-3.0-6.0,,19821,2727,"{""gender"":""female"",""age"":""66"",""colorblind"":""0"",""effort"":""0""}",,,,,,,,,,,,,,,,,,
,survey-html-form,3067198.0,0.0-3.0-6.0,,13897.5,2652,"{""gender"":""male"",""age"":""35"",""colorblind"":""0"",""effort"":""0""}",,,,,,,,,,,,,,,,,,
,survey-html-form,1473432.0,0.0-3.0-6.0,,19380.100000023842,2653,"{""gender"":""female"",""age"":""34"",""colorblind"":""0"",""effort"":""1""}",,,,,,,,,,,,,,,,,,
,survey-html-form,1271562.0,0.0-3.0-6.0,,6909.799999952316,2607,"{""gender"":""male"",""age"":""29"",""colorblind"":""0"",""effort"":""0""}",,,,,,,,,,,,,,,,,,
,survey-html-form,833690.0,0.0-3.0-6.0,,11212.399999976158,2592,"{""gender"":""female"",""age"":""30"",""colorblind"":""0"",""effort"":""0""}",,,,,,,,,,,,,,,,,,
,survey-html-form,1314470.0,0.0-3.0-6.0,,23092,2553,"{""gender"":""male"",""age"":""64"",""colorblind"":""0"",""effort"":""0""}",,,,,,,,,,,,,,,,,,
,survey-html-form,1444754.0,0.0-3.0-6.0,,234232.30000001192,2471,"{""gender"":""female"",""age"":""40"",""colorblind"":""0"",""effort"":""0""}",,,,,,,,,,,,,,,,,,
,survey-html-form,2287060.0,0.0-3.0-6.0,,24116.30000001192,2463,"{""gender"":""female"",""age"":""38"",""colorblind"":""0"",""effort"":""0""}",,,,,,,,,,,,,,,,,,
,survey-html-form,3554529.0,0.0-3.0-6.0,,15206.400000002235,2450,"{""gender"":""female"",""age"":""60"",""colorblind"":""0"",""effort"":""0""}",,,,,,,,,,,,,,,,,,
,survey-html-form,5253787.0,0.0-3.0-6.0,,14200.899999976158,2433,"{""gender"":""female"",""age"":""39"",""colorblind"":""0"",""effort"":""0""}",,,,,,,,,,,,,,,,,,
,survey-html-form,917524.0,0.0-3.0-6.0,,9567.5,2387,"{""gender"":""female"",""age"":""36"",""colorblind"":""0"",""effort"":""0""}",,,,,,,,,,,,,,,,,,
,survey-html-form,1910582.0,0.0-3.0-7.0,,25925.80000001192,2823,"{""gender"":""male"",""age"":""41"",""colorblind"":""0"",""effort"":""0""}",,,,,,,,,,,,,,,,,,
,survey-html-form,870658.0,0.0-3.0-7.0,,15977.5,2776,"{""gender"":""female"",""age"":""30"",""colorblind"":""0"",""effort"":""0""}",,,,,,,,,,,,,,,,,,
,survey-html-form,2258143.0,0.0-3.0-7.0,,34125.39999997616,2777,"{""gender"":""male"",""age"":""54"",""colorblind"":""0"",""effort"":""0""}",,,,,,,,,,,,,,,,,,
,survey-html-form,2105662.0,0.0-3.0-7.0,,25996.799999952316,2728,"{""gender"":""male"",""age"":""55"",""colorblind"":""0"",""effort"":""0""}",,,,,,,,,,,,,,,,,,
,survey-html-form,1597666.0,0.0-3.0-7.0,,106800.90000000596,2691,"{""gender"":""female"",""age"":""25"",""colorblind"":""0"",""effort"":""0""}",,,,,,,,,,,,,,,,,,
,survey-html-form,1566444.0,0.0-3.0-7.0,,28732.799999952316,2654,"{""gender"":""female"",""age"":""32"",""colorblind"":""0"",""effort"":""0""}",,,,,,,,,,,,,,,,,,
,survey-html-form,1471404.0,0.0-3.0-7.0,,18305.899999976158,2655,"{""gender"":""male"",""age"":""24"",""colorblind"":""1"",""effort"":""1""}",,,,,,,,,,,,,,,,,,
,survey-html-form,1074087.0,0.0-3.0-7.0,,19916,2554,"{""gender"":""male"",""age"":""24"",""colorblind"":""0"",""effort"":""0""}",,,,,,,,,,,,,,,,,,
,survey-html-form,1102501.0,0.0-3.0-7.0,,17657,2555,"{""gender"":""male"",""age"":""41"",""colorblind"":""0"",""effort"":""0""}",,,,,,,,,,,,,,,,,,
,survey-html-form,955422.0,0.0-3.0-7.0,,14709.599999904633,2518,"{""gender"":""female"",""age"":""64"",""colorblind"":""0"",""effort"":""0""}",,,,,,,,,,,,,,,,,,
,survey-html-form,1357501.0,0.0-3.0-7.0,,7908,2494,"{""gender"":""male"",""age"":""30"",""colorblind"":""0"",""effort"":""0""}",,,,,,,,,,,,,,,,,,
,survey-html-form,1421301.0,0.0-3.0-7.0,,24704.5,2472,"{""gender"":""female"",""age"":""56"",""colorblind"":""0"",""effort"":""0""}",,,,,,,,,,,,,,,,,,
,survey-html-form,993313.0,0.0-3.0-7.0,,15668.90000000596,2417,"{""gender"":""female"",""age"":""40"",""colorblind"":""0"",""effort"":""0""}",,,,,,,,,,,,,,,,,,
,survey-html-form,1659910.0,0.0-3.0-7.0,,31160,2388,"{""gender"":""male"",""age"":""69"",""colorblind"":""0"",""effort"":""0""}",,,,,,,,,,,,,,,,,,
,survey-html-form,3542190.0,0.0-3.0-7.0,,30587.700000047684,2824,"{""gender"":""female"",""age"":""40"",""colorblind"":""0"",""effort"":""0""}",,,,,,,,,,,,,,,,,,
,survey-html-form,2405248.0,0.0-3.0-7.0,,18661.100000023842,2778,"{""gender"":""female"",""age"":""53"",""colorblind"":""0"",""effort"":""0""}",,,,,,,,,,,,,,,,,,
,survey-html-form,1513801.0,0.0-3.0-7.0,,24109.099999964237,2779,"{""gender"":""female"",""age"":""44"",""colorblind"":""0"",""effort"":""0""}",,,,,,,,,,,,,,,,,,
,survey-html-form,1218901.0,0.0-3.0-7.0,,15230.399999976158,2729,"{""gender"":""female"",""age"":""51"",""colorblind"":""0"",""effort"":""0""}",,,,,,,,,,,,,,,,,,
,survey-html-form,1466702.0,0.0-3.0-7.0,,26814.59999999404,2708,"{""gender"":""female"",""age"":""47"",""colorblind"":""0"",""effort"":""0""}",,,,,,,,,,,,,,,,,,
,survey-html-form,3718691.0,0.0-3.0-7.0,,13362.799999952316,2656,"{""gender"":""male"",""age"":""30"",""colorblind"":""0"",""effort"":""0""}",,,,,,,,,,,,,,,,,,
,survey-html-form,2730352.0,0.0-3.0-7.0,,24106.5,2657,"{""gender"":""male"",""age"":""46"",""colorblind"":""0"",""effort"":""0""}",,,,,,,,,,,,,,,,,,
,survey-html-form,1958676.0,0.0-3.0-7.0,,15320.199999988079,2556,"{""gender"":""female"",""age"":""50"",""colorblind"":""0"",""effort"":""0""}",,,,,,,,,,,,,,,,,,
,survey-html-form,2320295.0,0.0-3.0-7.0,,19460,2557,"{""gender"":""female"",""age"":""65"",""colorblind"":""0"",""effort"":""0""}",,,,,,,,,,,,,,,,,,
,survey-html-form,2160613.0,0.0-3.0-7.0,,10620.299999952316,2558,"{""gender"":""male"",""age"":""39"",""colorblind"":""0"",""effort"":""0""}",,,,,,,,,,,,,,,,,,
,survey-html-form,1311983.0,0.0-3.0-7.0,,10878.700000047684,2495,"{""gender"":""male"",""age"":""34"",""colorblind"":""0"",""effort"":""0""}",,,,,,,,,,,,,,,,,,
,survey-html-form,905699.0,0.0-3.0-7.0,,10721.700000000186,2434,"{""gender"":""female"",""age"":""35"",""colorblind"":""0"",""effort"":""0""}",,,,,,,,,,,,,,,,,,
,survey-html-form,902025.0,0.0-3.0-7.0,,31954.100000023842,2425,"{""gender"":""male"",""age"":""38"",""colorblind"":""0"",""effort"":""2""}",,,,,,,,,,,,,,,,,,
,survey-html-form,3352611.0,0.0-3.0-7.0,,19699.89999999851,2400,"{""gender"":""male"",""age"":""61"",""colorblind"":""0"",""effort"":""0""}",,,,,,,,,,,,,,,,,,
,survey-html-form,994046.0,0.0-3.0-7.0,,23008,2825,"{""gender"":""female"",""age"":""41"",""colorblind"":""0"",""effort"":""0""}",,,,,,,,,,,,,,,,,,
,survey-html-form,1297834.0,0.0-3.0-7.0,,35802.199999999255,2780,"{""gender"":""male"",""age"":""24"",""colorblind"":""0"",""effort"":""0""}",,,,,,,,,,,,,,,,,,
,survey-html-form,1350469.0,0.0-3.0-7.0,,19607,2781,"{""gender"":""male"",""age"":""54"",""colorblind"":""0"",""effort"":""0""}",,,,,,,,,,,,,,,,,,
,survey-html-form,1022731.0,0.0-3.0-7.0,,33295.80000001192,2782,"{""gender"":""female"",""age"":""62"",""colorblind"":""0"",""effort"":""0""}",,,,,,,,,,,,,,,,,,
,survey-html-form,885180.0,0.0-3.0-7.0,,18757.19999999553,2698,"{""gender"":""male"",""age"":""31"",""colorblind"":""0"",""effort"":""0""}",,,,,,,,,,,,,,,,,,
,survey-html-form,1253393.0,0.0-3.0-7.0,,15030,2658,"{""gender"":""male"",""age"":""44"",""colorblind"":""0"",""effort"":""0""}",,,,,,,,,,,,,,,,,,
,survey-html-form,2187555.0,0.0-3.0-7.0,,24575.70000000298,2659,"{""gender"":""female"",""age"":""48"",""colorblind"":""0"",""effort"":""0""}",,,,,,,,,,,,,,,,,,
,survey-html-form,960572.0,0.0-3.0-7.0,,13228.5,2660,"{""gender"":""male"",""age"":""55"",""colorblind"":""0"",""effort"":""0""}",,,,,,,,,,,,,,,,,,
,survey-html-form,830271.0,0.0-3.0-7.0,,25153.80000001192,2559,"{""gender"":""male"",""age"":""28"",""colorblind"":""0"",""effort"":""0""}",,,,,,,,,,,,,,,,,,
,survey-html-form,943664.0,0.0-3.0-7.0,,24196.299999952316,2519,"{""gender"":""female"",""age"":""58"",""colorblind"":""0"",""effort"":""0""}",,,,,,,,,,,,,,,,,,
,survey-html-form,1259270.0,0.0-3.0-7.0,,16612.30000001192,2485,"{""gender"":""female"",""age"":""41"",""colorblind"":""0"",""effort"":""0""}",,,,,,,,,,,,,,,,,,
,survey-html-form,1015981.0,0.0-3.0-7.0,,15803,2473,"{""gender"":""female"",""age"":""60"",""colorblind"":""0"",""effort"":""0""}",,,,,,,,,,,,,,,,,,
,survey-html-form,775837.0,0.0-3.0-7.0,,23531,2435,"{""gender"":""female"",""age"":""70"",""colorblind"":""0"",""effort"":""0""}",,,,,,,,,,,,,,,,,,
,survey-html-form,1072680.0,0.0-3.0-7.0,,15427.5,2389,"{""gender"":""female"",""age"":""37"",""colorblind"":""0"",""effort"":""0""}",,,,,,,,,,,,,,,,,,
,survey-html-form,2334857.0,0.0-3.0-7.0,,48240,2826,"{""gender"":""male"",""age"":""35"",""colorblind"":""0"",""effort"":""0""}",,,,,,,,,,,,,,,,,,
,survey-html-form,925947.0,0.0-3.0-7.0,,18307.399999976158,2783,"{""gender"":""male"",""age"":""24"",""colorblind"":""0"",""effort"":""0""}",,,,,,,,,,,,,,,,,,
,survey-html-form,3527374.0,0.0-3.0-7.0,,35659.60000002384,2784,"{""gender"":""female"",""age"":""54"",""colorblind"":""0"",""effort"":""0""}",,,,,,,,,,,,,,,,,,
,survey-html-form,2505551.0,0.0-3.0-7.0,,19501.10000000894,2730,"{""gender"":""female"",""age"":""36"",""colorblind"":""0"",""effort"":""0""}",,,,,,,,,,,,,,,,,,
,survey-html-form,2541790.0,0.0-3.0-7.0,,14817,2692,"{""gender"":""male"",""age"":""50"",""colorblind"":""0"",""effort"":""0""}",,,,,,,,,,,,,,,,,,
,survey-html-form,1269241.0,0.0-3.0-7.0,,17922.799999952316,2661,"{""gender"":""female"",""age"":""67"",""colorblind"":""0"",""effort"":""0""}",,,,,,,,,,,,,,,,,,
,survey-html-form,2406385.0,0.0-3.0-7.0,,9523.799999999814,2662,"{""gender"":""female"",""age"":""40"",""colorblind"":""0"",""effort"":""0""}",,,,,,,,,,,,,,,,,,
,survey-html-form,1273265.0,0.0-3.0-7.0,,28217.69999998808,2560,"{""gender"":""female"",""age"":""55"",""colorblind"":""0"",""effort"":""0""}",,,,,,,,,,,,,,,,,,
,survey-html-form,2041492.0,0.0-3.0-7.0,,30350,2561,"{""gender"":""male"",""age"":""32"",""colorblind"":""1"",""effort"":""0""}",,,,,,,,,,,,,,,,,,
,survey-html-form,1907993.0,0.0-3.0-7.0,,10373.60000000149,2562,"{""gender"":""female"",""age"":""28"",""colorblind"":""0"",""effort"":""0""}",,,,,,,,,,,,,,,,,,
,survey-html-form,1184440.0,0.0-3.0-7.0,,18447.5,2504,"{""gender"":""male"",""age"":""37"",""colorblind"":""0"",""effort"":""0""}",,,,,,,,,,,,,,,,,,
,survey-html-form,2056948.0,0.0-3.0-7.0,,10892,2452,"{""gender"":""male"",""age"":""41"",""colorblind"":""0"",""effort"":""0""}",,,,,,,,,,,,,,,,,,
,survey-html-form,2696310.0,0.0-3.0-7.0,,31593.199999999255,2402,"{""gender"":""male"",""age"":""32"",""colorblind"":""0"",""effort"":""0""}",,,,,,,,,,,,,,,,,,
,survey-html-form,1371862.0,0.0-3.0-7.0,,10921,2390,"{""gender"":""male"",""age"":""31"",""colorblind"":""0"",""effort"":""0""}",,,,,,,,,,,,,,,,,,
,survey-html-form,3050677.0,0.0-3.0-7.0,,27088.20000000298,2827,"{""gender"":""male"",""age"":""35"",""colorblind"":""0"",""effort"":""1""}",,,,,,,,,,,,,,,,,,
,survey-html-form,1104389.0,0.0-3.0-7.0,,10811,2785,"{""gender"":""female"",""age"":""31"",""colorblind"":""0"",""effort"":""0""}",,,,,,,,,,,,,,,,,,
,survey-html-form,3106563.0,0.0-3.0-7.0,,22053.5,2743,"{""gender"":""female"",""age"":""38"",""colorblind"":""0"",""effort"":""0""}",,,,,,,,,,,,,,,,,,
,survey-html-form,2903477.0,0.0-3.0-7.0,,25722,2731,"{""gender"":""male"",""age"":""23"",""colorblind"":""0"",""effort"":""0""}",,,,,,,,,,,,,,,,,,
,survey-html-form,938608.0,0.0-3.0-7.0,,13719.5,2709,"{""gender"":""female"",""age"":""28"",""colorblind"":""0"",""effort"":""0""}",,,,,,,,,,,,,,,,,,
,survey-html-form,1437710.0,0.0-3.0-7.0,,49965.89999985695,2663,"{""gender"":""female"",""age"":""57"",""colorblind"":""0"",""effort"":""0""}",,,,,,,,,,,,,,,,,,
,survey-html-form,806116.0,0.0-3.0-7.0,,26255.79999999702,2664,"{""gender"":""female"",""age"":""51"",""colorblind"":""0"",""effort"":""0""}",,,,,,,,,,,,,,,,,,
,survey-html-form,3384075.0,0.0-3.0-7.0,,20561,2563,"{""gender"":""female"",""age"":""21"",""colorblind"":""0"",""effort"":""1""}",,,,,,,,,,,,,,,,,,
,survey-html-form,2433113.0,0.0-3.0-7.0,,27932.69999998808,2564,"{""gender"":""female"",""age"":""38"",""colorblind"":""0"",""effort"":""0""}",,,,,,,,,,,,,,,,,,
,survey-html-form,3058135.0,0.0-3.0-7.0,,15744.599999964237,2565,"{""gender"":""female"",""age"":""27"",""colorblind"":""0"",""effort"":""0""}",,,,,,,,,,,,,,,,,,
,survey-html-form,3092466.0,0.0-3.0-7.0,,19819.5,2509,"{""gender"":""male"",""age"":""55"",""colorblind"":""0"",""effort"":""0""}",,,,,,,,,,,,,,,,,,
,survey-html-form,2831187.0,0.0-3.0-7.0,,17889.5,2478,"{""gender"":""female"",""age"":""38"",""colorblind"":""0"",""effort"":""0""}",,,,,,,,,,,,,,,,,,
,survey-html-form,1036095.0,0.0-3.0-7.0,,18774.299999713898,2436,"{""gender"":""female"",""age"":""52"",""colorblind"":""0"",""effort"":""0""}",,,,,,,,,,,,,,,,,,
,survey-html-form,2486785.0,0.0-3.0-7.0,,24600.29999999702,2391,"{""gender"":""male"",""age"":""44"",""colorblind"":""0"",""effort"":""0""}",,,,,,,,,,,,,,,,,,
,survey-html-form,1382962.0,0.0-3.0-7.0,,27428.80000001192,2786,"{""gender"":""female"",""age"":""23"",""colorblind"":""0"",""effort"":""0""}",,,,,,,,,,,,,,,,,,
,survey-html-form,1498101.0,0.0-3.0-7.0,,18168.800000000745,2787,"{""gender"":""male"",""age"":""25"",""colorblind"":""0"",""effort"":""0""}",,,,,,,,,,,,,,,,,,
,survey-html-form,1347832.0,0.0-3.0-7.0,,15154.5,2788,"{""gender"":""male"",""age"":""33"",""colorblind"":""0"",""effort"":""0""}",,,,,,,,,,,,,,,,,,
,survey-html-form,1688264.0,0.0-3.0-7.0,,13742.70000000298,2732,"{""gender"":""female"",""age"":""39"",""colorblind"":""0"",""effort"":""0""}",,,,,,,,,,,,,,,,,,
,survey-html-form,1840757.0,0.0-3.0-7.0,,25104.39999999106,2693,"{""gender"":""male"",""age"":""24"",""colorblind"":""0"",""effort"":""0""}",,,,,,,,,,,,,,,,,,
,survey-html-form,1829884.0,0.0-3.0-7.0,,16989.200000010896,2665,"{""gender"":""female"",""age"":""37"",""colorblind"":""0"",""effort"":""0""}",,,,,,,,,,,,,,,,,,
,survey-html-form,1128934.0,0.0-3.0-7.0,,17587.299999998882,2666,"{""gender"":""male"",""age"":""46"",""colorblind"":""0"",""effort"":""0""}",,,,,,,,,,,,,,,,,,
,survey-html-form,1285195.0,0.0-3.0-7.0,,20817.30000001192,2566,"{""gender"":""male"",""age"":""19"",""colorblind"":""0"",""effort"":""0""}",,,,,,,,,,,,,,,,,,
,survey-html-form,923007.0,0.0-3.0-7.0,,24773.80000001192,2567,"{""gender"":""male"",""age"":""50"",""colorblind"":""0"",""effort"":""0""}",,,,,,,,,,,,,,,,,,
,survey-html-form,1806774.0,0.0-3.0-7.0,,18771.699999928474,2568,"{""gender"":""female"",""age"":""63"",""colorblind"":""0"",""effort"":""0""}",,,,,,,,,,,,,,,,,,
,survey-html-form,1554179.0,0.0-3.0-7.0,,16092,2486,"{""gender"":""female"",""age"":""29"",""colorblind"":""0"",""effort"":""0""}",,,,,,,,,,,,,,,,,,
,survey-html-form,1778637.0,0.0-3.0-7.0,,25989.200000047684,2474,"{""gender"":""female"",""age"":""41"",""colorblind"":""0"",""effort"":""0""}",,,,,,,,,,,,,,,,,,
,survey-html-form,1397620.0,0.0-3.0-7.0,,14897.599999904633,2426,"{""gender"":""male"",""age"":""43"",""colorblind"":""0"",""effort"":""0""}",,,,,,,,,,,,,,,,,,
,survey-html-form,782215.0,0.0-3.0-7.0,,13989.299999952316,2392,"{""gender"":""male"",""age"":""37"",""colorblind"":""0"",""effort"":""0""}",,,,,,,,,,,,,,,,,,
,survey-html-form,3511348.0,0.0-3.0-7.0,,54208,2789,"{""gender"":""female"",""age"":""67"",""colorblind"":""0"",""effort"":""0""}",,,,,,,,,,,,,,,,,,
,survey-html-form,2087649.0,0.0-3.0-7.0,,49523.89999999851,2790,"{""gender"":""female"",""age"":""48"",""colorblind"":""0"",""effort"":""0""}",,,,,,,,,,,,,,,,,,
,survey-html-form,861260.0,0.0-3.0-7.0,,13771.09999999404,2791,"{""gender"":""female"",""age"":""33"",""colorblind"":""0"",""effort"":""1""}",,,,,,,,,,,,,,,,,,
,survey-html-form,1251046.0,0.0-3.0-7.0,,24439,2733,"{""gender"":""male"",""age"":""31"",""colorblind"":""0"",""effort"":""1""}",,,,,,,,,,,,,,,,,,
,survey-html-form,959386.0,0.0-3.0-7.0,,24491.699999999953,2667,"{""gender"":""female"",""age"":""33"",""colorblind"":""0"",""effort"":""0""}",,,,,,,,,,,,,,,,,,
,survey-html-form,2298208.0,0.0-3.0-7.0,,24725.69999998808,2668,"{""gender"":""female"",""age"":""60"",""colorblind"":""0"",""effort"":""0""}",,,,,,,,,,,,,,,,,,
,survey-html-form,1073344.0,0.0-3.0-7.0,,20861.39999999432,2569,"{""gender"":""male"",""age"":""34"",""colorblind"":""0"",""effort"":""1""}",,,,,,,,,,,,,,,,,,
,survey-html-form,861413.0,0.0-3.0-7.0,,21622,2570,"{""gender"":""male"",""age"":""46"",""colorblind"":""0"",""effort"":""0""}",,,,,,,,,,,,,,,,,,
,survey-html-form,7824669.0,0.0-3.0-7.0,,19278,2512,"{""gender"":""female"",""age"":""44"",""colorblind"":""0"",""effort"":""1""}",,,,,,,,,,,,,,,,,,
,survey-html-form,876319.0,0.0-3.0-7.0,,14077,2497,"{""gender"":""male"",""age"":""34"",""colorblind"":""0"",""effort"":""0""}",,,,,,,,,,,,,,,,,,
,survey-html-form,1203600.0,0.0-3.0-7.0,,28834.60000000149,2453,"{""gender"":""female"",""age"":""46"",""colorblind"":""0"",""effort"":""0""}",,,,,,,,,,,,,,,,,,
,survey-html-form,1815951.0,0.0-3.0-7.0,,34874.40000000596,855,"{""gender"":""female"",""age"":""41"",""colorblind"":""0"",""effort"":""0""}",,,,,,,,,,,,,,,,,,
,survey-html-form,1580226.0,0.0-3.0-7.0,,19093.40000000596,2393,"{""gender"":""female"",""age"":""46"",""colorblind"":""0"",""effort"":""0""}",,,,,,,,,,,,,,,,,,
,survey-html-form,1129843.0,0.0-3.0-7.0,,17764.60000000149,2792,"{""gender"":""female"",""age"":""59"",""colorblind"":""0"",""effort"":""0""}",,,,,,,,,,,,,,,,,,
,survey-html-form,922569.0,0.0-3.0-7.0,,12676.699999928474,2793,"{""gender"":""male"",""age"":""23"",""colorblind"":""0"",""effort"":""0""}",,,,,,,,,,,,,,,,,,
,survey-html-form,3436533.0,0.0-3.0-7.0,,14284.700000047684,2744,"{""gender"":""female"",""age"":""35"",""colorblind"":""0"",""effort"":""0""}",,,,,,,,,,,,,,,,,,
,survey-html-form,2923084.0,0.0-3.0-7.0,,20904.19999998808,2734,"{""gender"":""female"",""age"":""60"",""colorblind"":""0"",""effort"":""0""}",,,,,,,,,,,,,,,,,,
,survey-html-form,3112702.0,0.0-3.0-7.0,,25347.19999998808,2669,"{""gender"":""male"",""age"":""44"",""colorblind"":""0"",""effort"":""0""}",,,,,,,,,,,,,,,,,,
,survey-html-form,1777448.0,0.0-3.0-7.0,,26793.79999998212,2670,"{""gender"":""female"",""age"":""37"",""colorblind"":""0"",""effort"":""1""}",,,,,,,,,,,,,,,,,,
,survey-html-form,2583210.0,0.0-3.0-7.0,,32607,2571,"{""gender"":""female"",""age"":""45"",""colorblind"":""0"",""effort"":""0""}",,,,,,,,,,,,,,,,,,
,survey-html-form,1107787.0,0.0-3.0-7.0,,20345.70000000298,2572,"{""gender"":""female"",""age"":""43"",""colorblind"":""0"",""effort"":""1""}",,,,,,,,,,,,,,,,,,
,survey-html-form,2924968.0,0.0-3.0-7.0,,29374,2573,"{""gender"":""female"",""age"":""58"",""colorblind"":""1"",""effort"":""0""}",,,,,,,,,,,,,,,,,,
,survey-html-form,1374906.0,0.0-3.0-7.0,,7957.600000023842,2520,"{""gender"":""female"",""age"":""22"",""colorblind"":""0"",""effort"":""0""}",,,,,,,,,,,,,,,,,,
,survey-html-form,3716930.0,0.0-3.0-7.0,,17540.399999976158,2464,"{""gender"":""male"",""age"":""45"",""colorblind"":""0"",""effort"":""0""}",,,,,,,,,,,,,,,,,,
,survey-html-form,828054.0,0.0-3.0-7.0,,17073.5,2454,"{""gender"":""female"",""age"":""60"",""colorblind"":""0"",""effort"":""0""}",,,,,,,,,,,,,,,,,,
,survey-html-form,3717518.0,0.0-3.0-7.0,,18339.200000047684,2437,"{""gender"":""female"",""age"":""45"",""colorblind"":""0"",""effort"":""0""}",,,,,,,,,,,,,,,,,,
,survey-html-form,763175.0,0.0-3.0-7.0,,14363,2283,"{""gender"":""male"",""age"":""19"",""colorblind"":""1"",""effort"":""0""}",,,,,,,,,,,,,,,,,,
,survey-html-form,1537051.0,0.0-3.0-7.0,,12045.5,2828,"{""gender"":""female"",""age"":""55"",""colorblind"":""1"",""effort"":""0""}",,,,,,,,,,,,,,,,,,
,survey-html-form,3462956.0,0.0-3.0-7.0,,14219,2794,"{""gender"":""male"",""age"":""42"",""colorblind"":""0"",""effort"":""0""}",,,,,,,,,,,,,,,,,,
,survey-html-form,1471027.0,0.0-3.0-7.0,,20038,2795,"{""gender"":""female"",""age"":""29"",""colorblind"":""0"",""effort"":""0""}",,,,,,,,,,,,,,,,,,
,survey-html-form,1565994.0,0.0-3.0-7.0,,16981.40000000596,2735,"{""gender"":""male"",""age"":""34"",""colorblind"":""0"",""effort"":""1""}",,,,,,,,,,,,,,,,,,
,survey-html-form,3775536.0,0.0-3.0-7.0,,25488,2684,"{""gender"":""male"",""age"":""31"",""colorblind"":""0"",""effort"":""1""}",,,,,,,,,,,,,,,,,,
,survey-html-form,2822336.0,0.0-3.0-7.0,,9884.79999999702,2671,"{""gender"":""male"",""age"":""43"",""colorblind"":""0"",""effort"":""0""}",,,,,,,,,,,,,,,,,,
,survey-html-form,1462704.0,0.0-3.0-7.0,,35501.80000001192,2608,"{""gender"":""female"",""age"":""52"",""colorblind"":""0"",""effort"":""0""}",,,,,,,,,,,,,,,,,,
,survey-html-form,2606030.0,0.0-3.0-7.0,,22042.099999964237,2574,"{""gender"":""female"",""age"":""42"",""colorblind"":""0"",""effort"":""0""}",,,,,,,,,,,,,,,,,,
,survey-html-form,2603309.0,0.0-3.0-7.0,,20121.199999809265,2575,"{""gender"":""male"",""age"":""45"",""colorblind"":""0"",""effort"":""0""}",,,,,,,,,,,,,,,,,,
,survey-html-form,3174247.0,0.0-3.0-7.0,,40970.700000047684,2465,"{""gender"":""female"",""age"":""70"",""colorblind"":""0"",""effort"":""0""}",,,,,,,,,,,,,,,,,,
,survey-html-form,4489557.0,0.0-3.0-7.0,,18744.5,2438,"{""gender"":""male"",""age"":""26"",""colorblind"":""0"",""effort"":""0""}",,,,,,,,,,,,,,,,,,
,survey-html-form,2619031.0,0.0-3.0-7.0,,27204.799999952316,2455,"{""gender"":""female"",""age"":""40"",""colorblind"":""0"",""effort"":""0""}",,,,,,,,,,,,,,,,,,
,survey-html-form,5277690.0,0.0-3.0-7.0,,18687.699999999255,2427,"{""gender"":""male"",""age"":""40"",""colorblind"":""0"",""effort"":""0""}",,,,,,,,,,,,,,,,,,
,survey-html-form,1168878.0,0.0-3.0-7.0,,21105.599999964237,2404,"{""gender"":""female"",""age"":""28"",""colorblind"":""1"",""effort"":""0""}",,,,,,,,,,,,,,,,,,
,survey-html-form,1428992.0,0.0-3.0-7.0,,22594,2796,"{""gender"":""female"",""age"":""30"",""colorblind"":""0"",""effort"":""0""}",,,,,,,,,,,,,,,,,,
,survey-html-form,2049817.0,0.0-3.0-7.0,,19146,2797,"{""gender"":""female"",""age"":""48"",""colorblind"":""0"",""effort"":""0""}",,,,,,,,,,,,,,,,,,
,survey-html-form,1958515.0,0.0-3.0-7.0,,31606.799999998882,2736,"{""gender"":""male"",""age"":""31"",""colorblind"":""0"",""effort"":""0""}",,,,,,,,,,,,,,,,,,
,survey-html-form,1293591.0,0.0-3.0-7.0,,13569.5,192,"{""gender"":""female"",""age"":""62"",""colorblind"":""0"",""effort"":""0""}",,,,,,,,,,,,,,,,,,
,survey-html-form,3259812.0,0.0-3.0-7.0,,17423.199999928474,2699,"{""gender"":""female"",""age"":""60"",""colorblind"":""0"",""effort"":""0""}",,,,,,,,,,,,,,,,,,
,survey-html-form,3383770.0,0.0-3.0-7.0,,26345.300000190735,2672,"{""gender"":""female"",""age"":""29"",""colorblind"":""0"",""effort"":""0""}",,,,,,,,,,,,,,,,,,
,survey-html-form,1049984.0,0.0-3.0-7.0,,17968.400000095367,2673,"{""gender"":""female"",""age"":""32"",""colorblind"":""0"",""effort"":""1""}",,,,,,,,,,,,,,,,,,
,survey-html-form,3443307.0,0.0-3.0-7.0,,29033.400000002235,2609,"{""gender"":""female"",""age"":""54"",""colorblind"":""0"",""effort"":""0""}",,,,,,,,,,,,,,,,,,
,survey-html-form,1174384.0,0.0-3.0-7.0,,13420.599999999627,2576,"{""gender"":""female"",""age"":""49"",""colorblind"":""0"",""effort"":""0""}",,,,,,,,,,,,,,,,,,
,survey-html-form,1042632.0,0.0-3.0-7.0,,22716.5,2577,"{""gender"":""male"",""age"":""39"",""colorblind"":""0"",""effort"":""0""}",,,,,,,,,,,,,,,,,,
,survey-html-form,1348268.0,0.0-3.0-7.0,,10011.800000011921,2578,"{""gender"":""male"",""age"":""32"",""colorblind"":""0"",""effort"":""0""}",,,,,,,,,,,,,,,,,,
,survey-html-form,1166552.0,0.0-3.0-7.0,,18229.899999976158,2475,"{""gender"":""male"",""age"":""33"",""colorblind"":""0"",""effort"":""0""}",,,,,,,,,,,,,,,,,,
,survey-html-form,1290002.0,0.0-3.0-7.0,,18076.5,2405,"{""gender"":""male"",""age"":""41"",""colorblind"":""0"",""effort"":""0""}",,,,,,,,,,,,,,,,,,
,survey-html-form,3409258.0,0.0-3.0-7.0,,19687,2406,"{""gender"":""female"",""age"":""43"",""colorblind"":""0"",""effort"":""0""}",,,,,,,,,,,,,,,,,,
,survey-html-form,1440268.0,0.0-3.0-7.0,,18516.799999952316,2798,"{""gender"":""male"",""age"":""63"",""colorblind"":""0"",""effort"":""0""}",,,,,,,,,,,,,,,,,,
,survey-html-form,1071065.0,0.0-3.0-7.0,,20557.799999952316,2799,"{""gender"":""male"",""age"":""54"",""colorblind"":""0"",""effort"":""0""}",,,,,,,,,,,,,,,,,,
,survey-html-form,956991.0,0.0-3.0-7.0,,19550.300000000745,2737,"{""gender"":""male"",""age"":""40"",""colorblind"":""0"",""effort"":""0""}",,,,,,,,,,,,,,,,,,
,survey-html-form,2799519.0,0.0-3.0-7.0,,17864.89999999851,2738,"{""gender"":""female"",""age"":""28"",""colorblind"":""0"",""effort"":""0""}",,,,,,,,,,,,,,,,,,
,survey-html-form,4490470.0,0.0-3.0-7.0,,32256.700000047684,2674,"{""gender"":""female"",""age"":""32"",""colorblind"":""0"",""effort"":""0""}",,,,,,,,,,,,,,,,,,
,survey-html-form,1824411.0,0.0-3.0-7.0,,16410,2675,"{""gender"":""male"",""age"":""34"",""colorblind"":""0"",""effort"":""0""}",,,,,,,,,,,,,,,,,,
,survey-html-form,4996497.0,0.0-3.0-7.0,,16186.20000000298,2579,"{""gender"":""male"",""age"":""34"",""colorblind"":""0"",""effort"":""0""}",,,,,,,,,,,,,,,,,,
,survey-html-form,2104693.0,0.0-3.0-7.0,,22066.5,2580,"{""gender"":""female"",""age"":""49"",""colorblind"":""0"",""effort"":""0""}",,,,,,,,,,,,,,,,,,
,survey-html-form,1414624.0,0.0-3.0-7.0,,16988.300000000745,2581,"{""gender"":""male"",""age"":""38"",""colorblind"":""0"",""effort"":""0""}",,,,,,,,,,,,,,,,,,
,survey-html-form,5644750.0,0.0-3.0-7.0,,16875.30000001192,1721,"{""gender"":""female"",""age"":""43"",""colorblind"":""0"",""effort"":""1""}",,,,,,,,,,,,,,,,,,
,survey-html-form,1385014.0,0.0-3.0-7.0,,34097,2487,"{""gender"":""female"",""age"":""39"",""colorblind"":""0"",""effort"":""0""}",,,,,,,,,,,,,,,,,,
,survey-html-form,1336034.0,0.0-3.0-7.0,,15509.099999964237,2456,"{""gender"":""male"",""age"":""35"",""colorblind"":""0"",""effort"":""1""}",,,,,,,,,,,,,,,,,,
,survey-html-form,1177319.0,0.0-3.0-7.0,,13837,2439,"{""gender"":""male"",""age"":""31"",""colorblind"":""0"",""effort"":""0""}",,,,,,,,,,,,,,,,,,
,survey-html-form,1795189.0,0.0-3.0-7.0,,94948,2440,"{""gender"":""male"",""age"":""54"",""colorblind"":""0"",""effort"":""0""}",,,,,,,,,,,,,,,,,,
,survey-html-form,4566540.0,0.0-3.0-7.0,,14870,2800,"{""gender"":""male"",""age"":""40"",""colorblind"":""0"",""effort"":""0""}",,,,,,,,,,,,,,,,,,
,survey-html-form,2271159.0,0.0-3.0-7.0,,18819,2801,"{""gender"":""female"",""age"":""22"",""colorblind"":""0"",""effort"":""1""}",,,,,,,,,,,,,,,,,,
,survey-html-form,1722151.0,0.0-3.0-7.0,,15688,2802,"{""gender"":""female"",""age"":""65"",""colorblind"":""0"",""effort"":""0""}",,,,,,,,,,,,,,,,,,
,survey-html-form,1427756.0,0.0-3.0-7.0,,13567.60000000149,2739,"{""gender"":""female"",""age"":""36"",""colorblind"":""0"",""effort"":""0""}",,,,,,,,,,,,,,,,,,
,survey-html-form,882632.0,0.0-3.0-7.0,,15248.799999952316,2676,"{""gender"":""male"",""age"":""25"",""colorblind"":""0"",""effort"":""1""}",,,,,,,,,,,,,,,,,,
,survey-html-form,3913870.0,0.0-3.0-7.0,,12120.300000011921,2677,"{""gender"":""male"",""age"":""37"",""colorblind"":""0"",""effort"":""0""}",,,,,,,,,,,,,,,,,,
,survey-html-form,985081.0,0.0-3.0-7.0,,18243,2678,"{""gender"":""male"",""age"":""36"",""colorblind"":""0"",""effort"":""0""}",,,,,,,,,,,,,,,,,,
,survey-html-form,2379565.0,0.0-3.0-7.0,,8017,2582,"{""gender"":""female"",""age"":""31"",""colorblind"":""0"",""effort"":""0""}",,,,,,,,,,,,,,,,,,
,survey-html-form,2477763.0,0.0-3.0-7.0,,21176.30000001192,2583,"{""gender"":""male"",""age"":""41"",""colorblind"":""0"",""effort"":""0""}",,,,,,,,,,,,,,,,,,
,survey-html-form,1328799.0,0.0-3.0-7.0,,28130.80000001192,2510,"{""gender"":""female"",""age"":""58"",""colorblind"":""0"",""effort"":""0""}",,,,,,,,,,,,,,,,,,
,survey-html-form,3214584.0,0.0-3.0-7.0,,20115.700000047684,2498,"{""gender"":""male"",""age"":""42"",""colorblind"":""0"",""effort"":""0""}",,,,,,,,,,,,,,,,,,
,survey-html-form,927971.0,0.0-3.0-7.0,,21886,2418,"{""gender"":""female"",""age"":""57"",""colorblind"":""0"",""effort"":""0""}",,,,,,,,,,,,,,,,,,
,survey-html-form,2418218.0,0.0-3.0-7.0,,28304.799999999814,2407,"{""gender"":""male"",""age"":""57"",""colorblind"":""0"",""effort"":""0""}",,,,,,,,,,,,,,,,,,
,survey-html-form,3723655.0,0.0-3.0-7.0,,20334.799999999814,2408,"{""gender"":""female"",""age"":""36"",""colorblind"":""0"",""effort"":""0""}",,,,,,,,,,,,,,,,,,
,survey-html-form,1248465.0,0.0-3.0-6.0,,26963.800000071526,2679,"{""gender"":""male"",""age"":""38"",""colorblind"":""0"",""effort"":""0""}",,,,,,,,,,,,,,,,,,
,survey-html-form,1449062.0,0.0-3.0-6.0,,31320.39999999106,2682,"{""gender"":""male"",""age"":""46"",""colorblind"":""0"",""effort"":""0""}",,,,,,,,,,,,,,,,,,
,survey-html-form,1971670.0,0.0-3.0-7.0,,17655.899999976158,2593,"{""gender"":""female"",""age"":""44"",""colorblind"":""0"",""effort"":""0""}",,,,,,,,,,,,,,,,,,
,survey-html-form,1206698.0,0.0-3.0-7.0,,47174.89999997616,2686,"{""gender"":""male"",""age"":""58"",""colorblind"":""0"",""effort"":""1""}",,,,,,,,,,,,,,,,,,
