success,trial_type,time_elapsed,internal_node_id,view_history,rt,pid,responses,correct,revealed_states,num_clicks_accrued,state_rewards,trial_id,block,trial_index,score,simulation_mode,rewards,path,actions,action_times,queries,displayed_time,trial_time,stimulus,button_pressed
,survey-multi-choice,84995.0,0.0-1.0-1.0,,21527,2611,"{""Q0"":""$-48 to $48"",""Q1"":""No, the cost is always $1.00."",""Q2"":""There is no limit"",""Q3"":""The better I perform the higher my bonus will be."",""Q4"":""No, the amount of cash at each node of the web may be different each time.""}","{'Q0': '$-48 to $48', 'Q1': 'No, the cost is always $1.00.', 'Q2': 'There is no limit', 'Q3': 'The better I perform the higher my bonus will be.', 'Q4': 'No, the amount of cash at each node of the web may be different each time.'}",,,,,,,,,,,,,,,,,
,survey-multi-choice,189167.0,0.0-1.0-1.0,,43099.0,2411,"{""Q0"":""$-48 to $48"",""Q1"":""No, the cost is always $1.00."",""Q2"":""One time"",""Q3"":""The better I perform the higher my bonus will be."",""Q4"":""No, the structure of the web will be different each time.""}","{'Q0': '$-48 to $48', 'Q1': 'No, the cost is always $1.00.', 'Q2': 'There is no limit', 'Q3': 'The better I perform the higher my bonus will be.', 'Q4': 'No, the amount of cash at each node of the web may be different each time.'}",,,,,,,,,,,,,,,,,
,survey-multi-choice,278989.0,0.0-1.1-1.1,,22809.0,2411,"{""Q0"":""$-48 to $48"",""Q1"":""No, the cost is always $1.00."",""Q2"":""There is no limit"",""Q3"":""The better I perform the higher my bonus will be."",""Q4"":""No, the structure of the web will be different each time.""}","{'Q0': '$-48 to $48', 'Q1': 'No, the cost is always $1.00.', 'Q2': 'There is no limit', 'Q3': 'The better I perform the higher my bonus will be.', 'Q4': 'No, the amount of cash at each node of the web may be different each time.'}",,,,,,,,,,,,,,,,,
,survey-multi-choice,165622.0,0.0-1.0-1.0,,44452,2711,"{""Q0"":""$-100 to $100"",""Q1"":""No, the cost is always $1.00."",""Q2"":""There is no limit"",""Q3"":""The better I perform the higher my bonus will be."",""Q4"":""No, the amount of cash at each node of the web may be different each time.""}","{'Q0': '$-48 to $48', 'Q1': 'No, the cost is always $1.00.', 'Q2': 'There is no limit', 'Q3': 'The better I perform the higher my bonus will be.', 'Q4': 'No, the amount of cash at each node of the web may be different each time.'}",,,,,,,,,,,,,,,,,
,survey-multi-choice,270340.0,0.0-1.1-1.1,,17538,2711,"{""Q0"":""$-48 to $48"",""Q1"":""No, the cost is always $1.00."",""Q2"":""There is no limit"",""Q3"":""The better I perform the higher my bonus will be."",""Q4"":""No, the amount of cash at each node of the web may be different each time.""}","{'Q0': '$-48 to $48', 'Q1': 'No, the cost is always $1.00.', 'Q2': 'There is no limit', 'Q3': 'The better I perform the higher my bonus will be.', 'Q4': 'No, the amount of cash at each node of the web may be different each time.'}",,,,,,,,,,,,,,,,,
,survey-multi-choice,96225.0,0.0-1.0-1.0,,27100.0,2613,"{""Q0"":""$-48 to $48"",""Q1"":""No, the cost is always $1.00."",""Q2"":""There is no limit"",""Q3"":""The better I perform the higher my bonus will be."",""Q4"":""No, the structure of the web will be different each time.""}","{'Q0': '$-48 to $48', 'Q1': 'No, the cost is always $1.00.', 'Q2': 'There is no limit', 'Q3': 'The better I perform the higher my bonus will be.', 'Q4': 'No, the amount of cash at each node of the web may be different each time.'}",,,,,,,,,,,,,,,,,
,survey-multi-choice,209067.0,0.0-1.0-1.0,,52380,2585,"{""Q0"":""$-48 to $48"",""Q1"":""No, the cost is always $1.00."",""Q2"":""One time"",""Q3"":""The better I perform the higher my bonus will be."",""Q4"":""No, the amount of cash at each node of the web may be different each time.""}","{'Q0': '$-48 to $48', 'Q1': 'No, the cost is always $1.00.', 'Q2': 'There is no limit', 'Q3': 'The better I perform the higher my bonus will be.', 'Q4': 'No, the amount of cash at each node of the web may be different each time.'}",,,,,,,,,,,,,,,,,
,survey-multi-choice,367454.0,0.0-1.1-1.1,,80209,2585,"{""Q0"":""$-48 to $48"",""Q1"":""No, the cost is always $1.00."",""Q2"":""There is no limit"",""Q3"":""The better I perform the higher my bonus will be."",""Q4"":""No, the amount of cash at each node of the web may be different each time.""}","{'Q0': '$-48 to $48', 'Q1': 'No, the cost is always $1.00.', 'Q2': 'There is no limit', 'Q3': 'The better I perform the higher my bonus will be.', 'Q4': 'No, the amount of cash at each node of the web may be different each time.'}",,,,,,,,,,,,,,,,,
,survey-multi-choice,1375328.0,0.0-3.0-3.0-0.0,,69456,2585,"{""Q0"":""No"",""Q1"":""No, the cost is always $1.00."",""Q2"":""There is no limit""}","{'Q0': 'No', 'Q1': 'No, the cost is always $1.00.', 'Q2': 'There is no limit'}",,,,,,,,,,,,,,,,,
,survey-multi-choice,1882195.0,0.0-3.0-5.0,,159769,2585,"{""Q0"":""$-4 to $4"",""Q1"":""$-8 to $8"",""Q2"":""$-48 to $48"",""Q3"":""No, the cost is always $1.00."",""Q4"":""Slightly motivated""}",,,,,,,,,,,,,,,,,,
,survey-multi-choice,121300.0,0.0-1.0-1.0,,42423.0,2614,"{""Q0"":""$-48 to $48"",""Q1"":""No, the cost is always $1.00."",""Q2"":""There is no limit"",""Q3"":""The better I perform the higher my bonus will be."",""Q4"":""No, the structure of the web will be different each time.""}","{'Q0': '$-48 to $48', 'Q1': 'No, the cost is always $1.00.', 'Q2': 'There is no limit', 'Q3': 'The better I perform the higher my bonus will be.', 'Q4': 'No, the amount of cash at each node of the web may be different each time.'}",,,,,,,,,,,,,,,,,
,survey-multi-choice,305016.0,0.0-1.0-1.0,,91838.0,2599,"{""Q0"":""$-100 to $100"",""Q1"":""No, the cost is always $1.00."",""Q2"":""One time"",""Q3"":""The better I perform the higher my bonus will be."",""Q4"":""No, the amount of cash at each node of the web may be different each time.""}","{'Q0': '$-48 to $48', 'Q1': 'No, the cost is always $1.00.', 'Q2': 'There is no limit', 'Q3': 'The better I perform the higher my bonus will be.', 'Q4': 'No, the amount of cash at each node of the web may be different each time.'}",,,,,,,,,,,,,,,,,
,survey-multi-choice,35418.0,0.0-1.0-1.0,,13965,2808,"{""Q0"":""$-48 to $48"",""Q1"":""No, the cost is always $1.00."",""Q2"":""One time"",""Q3"":""I will receive a $1 bonus if I perform well, otherwise I will receive no bonus."",""Q4"":""No, the structure of the web will be different each time.""}","{'Q0': '$-48 to $48', 'Q1': 'No, the cost is always $1.00.', 'Q2': 'There is no limit', 'Q3': 'The better I perform the higher my bonus will be.', 'Q4': 'No, the amount of cash at each node of the web may be different each time.'}",,,,,,,,,,,,,,,,,
,survey-multi-choice,72049.0,0.0-1.1-1.1,,14909,2808,"{""Q0"":""$-48 to $48"",""Q1"":""No, the cost is always $1.00."",""Q2"":""There is no limit"",""Q3"":""I will receive a $1 bonus if I perform well, otherwise I will receive no bonus."",""Q4"":""No, the structure of the web will be different each time.""}","{'Q0': '$-48 to $48', 'Q1': 'No, the cost is always $1.00.', 'Q2': 'There is no limit', 'Q3': 'The better I perform the higher my bonus will be.', 'Q4': 'No, the amount of cash at each node of the web may be different each time.'}",,,,,,,,,,,,,,,,,
,survey-multi-choice,118430.0,0.0-1.2-1.2,,20575,2808,"{""Q0"":""$-48 to $48"",""Q1"":""No, the cost is always $1.00."",""Q2"":""Five times"",""Q3"":""The better I perform the higher my bonus will be."",""Q4"":""No, the structure of the web will be different each time.""}","{'Q0': '$-48 to $48', 'Q1': 'No, the cost is always $1.00.', 'Q2': 'There is no limit', 'Q3': 'The better I perform the higher my bonus will be.', 'Q4': 'No, the amount of cash at each node of the web may be different each time.'}",,,,,,,,,,,,,,,,,
,survey-multi-choice,162510.0,0.0-1.3-1.3,,16317,2808,"{""Q0"":""$-48 to $48"",""Q1"":""No, the cost is always $1.00."",""Q2"":""There is no limit"",""Q3"":""The better I perform the higher my bonus will be."",""Q4"":""No, the amount of cash at each node of the web may be different each time.""}","{'Q0': '$-48 to $48', 'Q1': 'No, the cost is always $1.00.', 'Q2': 'There is no limit', 'Q3': 'The better I perform the higher my bonus will be.', 'Q4': 'No, the amount of cash at each node of the web may be different each time.'}",,,,,,,,,,,,,,,,,
,survey-multi-choice,41131.0,0.0-1.0-1.0,,15848.0,2809,"{""Q0"":""$-10 to $10"",""Q1"":""There is no cost for clicking on nodes."",""Q2"":""Three times"",""Q3"":""I will receive a $1 bonus regardless of my performance."",""Q4"":""Yes.""}","{'Q0': '$-48 to $48', 'Q1': 'No, the cost is always $1.00.', 'Q2': 'There is no limit', 'Q3': 'The better I perform the higher my bonus will be.', 'Q4': 'No, the amount of cash at each node of the web may be different each time.'}",,,,,,,,,,,,,,,,,
,survey-multi-choice,64803.0,0.0-1.1-1.1,,9231.0,2809,"{""Q0"":""$-48 to $48"",""Q1"":""Yes, but the cost for clicking on nodes varies."",""Q2"":""Three times"",""Q3"":""I will receive a $1 bonus regardless of my performance."",""Q4"":""No, the amount of cash at each node of the web may be different each time.""}","{'Q0': '$-48 to $48', 'Q1': 'No, the cost is always $1.00.', 'Q2': 'There is no limit', 'Q3': 'The better I perform the higher my bonus will be.', 'Q4': 'No, the amount of cash at each node of the web may be different each time.'}",,,,,,,,,,,,,,,,,
,survey-multi-choice,85873.0,0.0-1.2-1.2,,10381.0,2809,"{""Q0"":""$-48 to $48"",""Q1"":""Yes, but the cost for clicking on nodes varies."",""Q2"":""Three times"",""Q3"":""I will receive a $1 bonus regardless of my performance."",""Q4"":""Yes.""}","{'Q0': '$-48 to $48', 'Q1': 'No, the cost is always $1.00.', 'Q2': 'There is no limit', 'Q3': 'The better I perform the higher my bonus will be.', 'Q4': 'No, the amount of cash at each node of the web may be different each time.'}",,,,,,,,,,,,,,,,,
,survey-multi-choice,181452.0,0.0-1.0-1.0,,37859,2810,"{""Q0"":""$-48 to $48"",""Q1"":""No, the cost is always $1.00."",""Q2"":""One time"",""Q3"":""The better I perform the higher my bonus will be."",""Q4"":""No, the amount of cash at each node of the web may be different each time.""}","{'Q0': '$-48 to $48', 'Q1': 'No, the cost is always $1.00.', 'Q2': 'There is no limit', 'Q3': 'The better I perform the higher my bonus will be.', 'Q4': 'No, the amount of cash at each node of the web may be different each time.'}",,,,,,,,,,,,,,,,,
,survey-multi-choice,249027.0,0.0-1.1-1.1,,18488,2810,"{""Q0"":""$-48 to $48"",""Q1"":""No, the cost is always $1.00."",""Q2"":""There is no limit"",""Q3"":""The better I perform the higher my bonus will be."",""Q4"":""No, the amount of cash at each node of the web may be different each time.""}","{'Q0': '$-48 to $48', 'Q1': 'No, the cost is always $1.00.', 'Q2': 'There is no limit', 'Q3': 'The better I perform the higher my bonus will be.', 'Q4': 'No, the amount of cash at each node of the web may be different each time.'}",,,,,,,,,,,,,,,,,
,survey-multi-choice,2625152.0,0.0-3.0-3.0-0.0,,56470,2810,"{""Q0"":""No"",""Q1"":""No, the cost is always $1.00."",""Q2"":""There is no limit""}","{'Q0': 'No', 'Q1': 'No, the cost is always $1.00.', 'Q2': 'There is no limit'}",,,,,,,,,,,,,,,,,
,survey-multi-choice,2909640.0,0.0-3.0-5.0,,51538,2810,"{""Q0"":""$-4 to $4"",""Q1"":""$-8 to $8"",""Q2"":""$-48 to $48"",""Q3"":""No, the cost is always $1.00."",""Q4"":""Slightly motivated""}",,,,,,,,,,,,,,,,,,
,survey-multi-choice,116735.0,0.0-1.0-1.0,,18169.0,2429,"{""Q0"":""$-48 to $48"",""Q1"":""No, the cost is always $1.00."",""Q2"":""There is no limit"",""Q3"":""The better I perform the higher my bonus will be."",""Q4"":""No, the structure of the web will be different each time.""}","{'Q0': '$-48 to $48', 'Q1': 'No, the cost is always $1.00.', 'Q2': 'There is no limit', 'Q3': 'The better I perform the higher my bonus will be.', 'Q4': 'No, the amount of cash at each node of the web may be different each time.'}",,,,,,,,,,,,,,,,,
,survey-multi-choice,92694.0,0.0-1.0-1.0,,28586.0,2376,"{""Q0"":""$-48 to $48"",""Q1"":""No, the cost is always $1.00."",""Q2"":""There is no limit"",""Q3"":""I will receive a $1 bonus if I perform well, otherwise I will receive no bonus."",""Q4"":""No, the amount of cash at each node of the web may be different each time.""}","{'Q0': '$-48 to $48', 'Q1': 'No, the cost is always $1.00.', 'Q2': 'There is no limit', 'Q3': 'The better I perform the higher my bonus will be.', 'Q4': 'No, the amount of cash at each node of the web may be different each time.'}",,,,,,,,,,,,,,,,,
,survey-multi-choice,209475.0,0.0-1.0-1.0,,57380,2747,"{""Q0"":""$-48 to $48"",""Q1"":""No, the cost is always $1.00."",""Q2"":""There is no limit"",""Q3"":""The better I perform the higher my bonus will be."",""Q4"":""No, the amount of cash at each node of the web may be different each time.""}","{'Q0': '$-48 to $48', 'Q1': 'No, the cost is always $1.00.', 'Q2': 'There is no limit', 'Q3': 'The better I perform the higher my bonus will be.', 'Q4': 'No, the amount of cash at each node of the web may be different each time.'}",,,,,,,,,,,,,,,,,
,survey-multi-choice,824507.0,0.0-3.0-3.0-0.0,,53567,2747,"{""Q0"":""No"",""Q1"":""No, the cost is always $1.00."",""Q2"":""There is no limit""}","{'Q0': 'No', 'Q1': 'No, the cost is always $1.00.', 'Q2': 'There is no limit'}",,,,,,,,,,,,,,,,,
,survey-multi-choice,1052002.0,0.0-3.0-5.0,,42848,2747,"{""Q0"":""$-4 to $4"",""Q1"":""$-8 to $8"",""Q2"":""$-48 to $48"",""Q3"":""No, the cost is always $1.00."",""Q4"":""Very motivated""}",,,,,,,,,,,,,,,,,,
,survey-multi-choice,172213.0,0.0-1.0-1.0,,46845,2603,"{""Q0"":""$-48 to $48"",""Q1"":""No, the cost is always $1.00."",""Q2"":""There is no limit"",""Q3"":""No."",""Q4"":""No, the amount of cash at each node of the web may be different each time.""}","{'Q0': '$-48 to $48', 'Q1': 'No, the cost is always $1.00.', 'Q2': 'There is no limit', 'Q3': 'The better I perform the higher my bonus will be.', 'Q4': 'No, the amount of cash at each node of the web may be different each time.'}",,,,,,,,,,,,,,,,,
,survey-multi-choice,352894.0,0.0-1.1-1.1,,20608,2603,"{""Q0"":""$-48 to $48"",""Q1"":""No, the cost is always $1.00."",""Q2"":""There is no limit"",""Q3"":""The better I perform the higher my bonus will be."",""Q4"":""No, the structure of the web will be different each time.""}","{'Q0': '$-48 to $48', 'Q1': 'No, the cost is always $1.00.', 'Q2': 'There is no limit', 'Q3': 'The better I perform the higher my bonus will be.', 'Q4': 'No, the amount of cash at each node of the web may be different each time.'}",,,,,,,,,,,,,,,,,
,survey-multi-choice,383984.0,0.0-1.2-1.2,,20621,2603,"{""Q0"":""$-48 to $48"",""Q1"":""No, the cost is always $1.00."",""Q2"":""There is no limit"",""Q3"":""The better I perform the higher my bonus will be."",""Q4"":""No, the amount of cash at each node of the web may be different each time.""}","{'Q0': '$-48 to $48', 'Q1': 'No, the cost is always $1.00.', 'Q2': 'There is no limit', 'Q3': 'The better I perform the higher my bonus will be.', 'Q4': 'No, the amount of cash at each node of the web may be different each time.'}",,,,,,,,,,,,,,,,,
,survey-multi-choice,201980.0,0.0-1.0-1.0,,58318,2482,"{""Q0"":""$-48 to $48"",""Q1"":""No, the cost is always $1.00."",""Q2"":""There is no limit"",""Q3"":""The better I perform the higher my bonus will be."",""Q4"":""No, the structure of the web will be different each time.""}","{'Q0': '$-48 to $48', 'Q1': 'No, the cost is always $1.00.', 'Q2': 'There is no limit', 'Q3': 'The better I perform the higher my bonus will be.', 'Q4': 'No, the amount of cash at each node of the web may be different each time.'}",,,,,,,,,,,,,,,,,
,survey-multi-choice,271188.0,0.0-1.1-1.1,,19285,2482,"{""Q0"":""$-48 to $48"",""Q1"":""No, the cost is always $1.00."",""Q2"":""There is no limit"",""Q3"":""The better I perform the higher my bonus will be."",""Q4"":""No, the amount of cash at each node of the web may be different each time.""}","{'Q0': '$-48 to $48', 'Q1': 'No, the cost is always $1.00.', 'Q2': 'There is no limit', 'Q3': 'The better I perform the higher my bonus will be.', 'Q4': 'No, the amount of cash at each node of the web may be different each time.'}",,,,,,,,,,,,,,,,,
,survey-multi-choice,2029764.0,0.0-3.0-3.0-0.0,,56656,2482,"{""Q0"":""No"",""Q1"":""No, the cost is always $1.00."",""Q2"":""There is no limit""}","{'Q0': 'No', 'Q1': 'No, the cost is always $1.00.', 'Q2': 'There is no limit'}",,,,,,,,,,,,,,,,,
,survey-multi-choice,2272887.0,0.0-3.0-5.0,,55411,2482,"{""Q0"":""$-4 to $4"",""Q1"":""$-4 to $4"",""Q2"":""$-48 to $48"",""Q3"":""No, the cost is always $1.00."",""Q4"":""Very motivated""}",,,,,,,,,,,,,,,,,,
,survey-multi-choice,57819.0,0.0-1.0-1.0,,20342.0,2811,"{""Q0"":""$-48 to $48"",""Q1"":""No, the cost is always $1.00."",""Q2"":""One time"",""Q3"":""The better I perform the higher my bonus will be."",""Q4"":""No, the structure of the web will be different each time.""}","{'Q0': '$-48 to $48', 'Q1': 'No, the cost is always $1.00.', 'Q2': 'There is no limit', 'Q3': 'The better I perform the higher my bonus will be.', 'Q4': 'No, the amount of cash at each node of the web may be different each time.'}",,,,,,,,,,,,,,,,,
,survey-multi-choice,77977.0,0.0-1.0-1.0,,17906,2700,"{""Q0"":""$-48 to $48"",""Q1"":""No, the cost is always $1.00."",""Q2"":""There is no limit"",""Q3"":""The better I perform the higher my bonus will be."",""Q4"":""No, the amount of cash at each node of the web may be different each time.""}","{'Q0': '$-48 to $48', 'Q1': 'No, the cost is always $1.00.', 'Q2': 'There is no limit', 'Q3': 'The better I perform the higher my bonus will be.', 'Q4': 'No, the amount of cash at each node of the web may be different each time.'}",,,,,,,,,,,,,,,,,
,survey-multi-choice,39156.0,0.0-1.0-1.0,,17805.0,2689,"{""Q0"":""$0 to $50"",""Q1"":""Yes, but the cost for clicking on nodes varies."",""Q2"":""Three times"",""Q3"":""I will receive a $1 bonus if I perform well, otherwise I will receive no bonus."",""Q4"":""No, the amount of cash at each node of the web may be different each time.""}","{'Q0': '$-48 to $48', 'Q1': 'No, the cost is always $1.00.', 'Q2': 'There is no limit', 'Q3': 'The better I perform the higher my bonus will be.', 'Q4': 'No, the amount of cash at each node of the web may be different each time.'}",,,,,,,,,,,,,,,,,
,survey-multi-choice,120484.0,0.0-1.0-1.0,,20919,2522,"{""Q0"":""$-48 to $48"",""Q1"":""No, the cost is always $1.00."",""Q2"":""There is no limit"",""Q3"":""The better I perform the higher my bonus will be."",""Q4"":""No, the structure of the web will be different each time.""}","{'Q0': '$-48 to $48', 'Q1': 'No, the cost is always $1.00.', 'Q2': 'There is no limit', 'Q3': 'The better I perform the higher my bonus will be.', 'Q4': 'No, the amount of cash at each node of the web may be different each time.'}",,,,,,,,,,,,,,,,,
,survey-multi-choice,150278.0,0.0-1.1-1.1,,7970,2522,"{""Q0"":""$-48 to $48"",""Q1"":""No, the cost is always $1.00."",""Q2"":""There is no limit"",""Q3"":""The better I perform the higher my bonus will be."",""Q4"":""No, the amount of cash at each node of the web may be different each time.""}","{'Q0': '$-48 to $48', 'Q1': 'No, the cost is always $1.00.', 'Q2': 'There is no limit', 'Q3': 'The better I perform the higher my bonus will be.', 'Q4': 'No, the amount of cash at each node of the web may be different each time.'}",,,,,,,,,,,,,,,,,
,survey-multi-choice,1816919.0,0.0-3.0-3.0-0.0,,28505,2522,"{""Q0"":""No"",""Q1"":""No, the cost is always $1.00."",""Q2"":""There is no limit""}","{'Q0': 'No', 'Q1': 'No, the cost is always $1.00.', 'Q2': 'There is no limit'}",,,,,,,,,,,,,,,,,
,survey-multi-choice,2148956.0,0.0-3.0-5.0,,41327,2522,"{""Q0"":""$-4 to $4"",""Q1"":""$-8 to $8"",""Q2"":""$-48 to $48"",""Q3"":""No, the cost is always $1.00."",""Q4"":""Slightly motivated""}",,,,,,,,,,,,,,,,,,
,survey-multi-choice,481601.0,0.0-1.0-1.0,,118027.0,2523,"{""Q0"":""$-48 to $48"",""Q1"":""No, the cost is always $1.00."",""Q2"":""One time"",""Q3"":""I will receive a $1 bonus if I perform well, otherwise I will receive no bonus."",""Q4"":""No, the amount of cash at each node of the web may be different each time.""}","{'Q0': '$-48 to $48', 'Q1': 'No, the cost is always $1.00.', 'Q2': 'There is no limit', 'Q3': 'The better I perform the higher my bonus will be.', 'Q4': 'No, the amount of cash at each node of the web may be different each time.'}",,,,,,,,,,,,,,,,,
,survey-multi-choice,100595.0,0.0-1.0-1.0,,28908.0,2513,"{""Q0"":""$-100 to $100"",""Q1"":""No, the cost is always $1.00."",""Q2"":""There is no limit"",""Q3"":""The better I perform the higher my bonus will be."",""Q4"":""No, the amount of cash at each node of the web may be different each time.""}","{'Q0': '$-48 to $48', 'Q1': 'No, the cost is always $1.00.', 'Q2': 'There is no limit', 'Q3': 'The better I perform the higher my bonus will be.', 'Q4': 'No, the amount of cash at each node of the web may be different each time.'}",,,,,,,,,,,,,,,,,
,survey-multi-choice,2104280.0,0.0-1.0-1.0,,18417.0,2409,"{""Q0"":""$-48 to $48"",""Q1"":""No, the cost is always $1.00."",""Q2"":""There is no limit"",""Q3"":""The better I perform the higher my bonus will be."",""Q4"":""No, the amount of cash at each node of the web may be different each time.""}","{'Q0': '$-48 to $48', 'Q1': 'No, the cost is always $1.00.', 'Q2': 'There is no limit', 'Q3': 'The better I perform the higher my bonus will be.', 'Q4': 'No, the amount of cash at each node of the web may be different each time.'}",,,,,,,,,,,,,,,,,
,survey-multi-choice,160988.0,0.0-1.0-1.0,,37255.0,2359,"{""Q0"":""$-100 to $100"",""Q1"":""No, the cost is always $1.00."",""Q2"":""One time"",""Q3"":""The better I perform the higher my bonus will be."",""Q4"":""No, the amount of cash at each node of the web may be different each time.""}","{'Q0': '$-48 to $48', 'Q1': 'No, the cost is always $1.00.', 'Q2': 'There is no limit', 'Q3': 'The better I perform the higher my bonus will be.', 'Q4': 'No, the amount of cash at each node of the web may be different each time.'}",,,,,,,,,,,,,,,,,
,survey-multi-choice,100542.0,0.0-1.0-1.0,,22671.0,2748,"{""Q0"":""$-48 to $48"",""Q1"":""No, the cost is always $1.00."",""Q2"":""There is no limit"",""Q3"":""The better I perform the higher my bonus will be."",""Q4"":""No, the amount of cash at each node of the web may be different each time.""}","{'Q0': '$-48 to $48', 'Q1': 'No, the cost is always $1.00.', 'Q2': 'There is no limit', 'Q3': 'The better I perform the higher my bonus will be.', 'Q4': 'No, the amount of cash at each node of the web may be different each time.'}",,,,,,,,,,,,,,,,,
,survey-multi-choice,150081.0,0.0-1.0-1.0,,27912.0,2804,"{""Q0"":""$-48 to $48"",""Q1"":""No, the cost is always $1.00."",""Q2"":""One time"",""Q3"":""The better I perform the higher my bonus will be."",""Q4"":""Yes.""}","{'Q0': '$-48 to $48', 'Q1': 'No, the cost is always $1.00.', 'Q2': 'There is no limit', 'Q3': 'The better I perform the higher my bonus will be.', 'Q4': 'No, the amount of cash at each node of the web may be different each time.'}",,,,,,,,,,,,,,,,,
,survey-multi-choice,114345.0,0.0-1.0-1.0,,24469.0,2615,"{""Q0"":""$-48 to $48"",""Q1"":""No, the cost is always $1.00."",""Q2"":""There is no limit"",""Q3"":""The better I perform the higher my bonus will be."",""Q4"":""No, the structure of the web will be different each time.""}","{'Q0': '$-48 to $48', 'Q1': 'No, the cost is always $1.00.', 'Q2': 'There is no limit', 'Q3': 'The better I perform the higher my bonus will be.', 'Q4': 'No, the amount of cash at each node of the web may be different each time.'}",,,,,,,,,,,,,,,,,
,survey-multi-choice,158370.0,0.0-1.1-1.1,,12386.0,2615,"{""Q0"":""$-48 to $48"",""Q1"":""No, the cost is always $1.00."",""Q2"":""There is no limit"",""Q3"":""The better I perform the higher my bonus will be."",""Q4"":""No, the structure of the web will be different each time.""}","{'Q0': '$-48 to $48', 'Q1': 'No, the cost is always $1.00.', 'Q2': 'There is no limit', 'Q3': 'The better I perform the higher my bonus will be.', 'Q4': 'No, the amount of cash at each node of the web may be different each time.'}",,,,,,,,,,,,,,,,,
,survey-multi-choice,115655.0,0.0-1.0-1.0,,22651,2524,"{""Q0"":""$-48 to $48"",""Q1"":""No, the cost is always $1.00."",""Q2"":""There is no limit"",""Q3"":""The better I perform the higher my bonus will be."",""Q4"":""No, the amount of cash at each node of the web may be different each time.""}","{'Q0': '$-48 to $48', 'Q1': 'No, the cost is always $1.00.', 'Q2': 'There is no limit', 'Q3': 'The better I perform the higher my bonus will be.', 'Q4': 'No, the amount of cash at each node of the web may be different each time.'}",,,,,,,,,,,,,,,,,
,survey-multi-choice,162088.0,0.0-1.0-1.0,,48248.0,2508,"{""Q0"":""$0 to $50"",""Q1"":""No, the cost is always $1.00."",""Q2"":""There is no limit"",""Q3"":""The better I perform the higher my bonus will be."",""Q4"":""No, the amount of cash at each node of the web may be different each time.""}","{'Q0': '$-48 to $48', 'Q1': 'No, the cost is always $1.00.', 'Q2': 'There is no limit', 'Q3': 'The better I perform the higher my bonus will be.', 'Q4': 'No, the amount of cash at each node of the web may be different each time.'}",,,,,,,,,,,,,,,,,
,survey-multi-choice,271265.0,0.0-1.1-1.1,,35080.0,2508,"{""Q0"":""$-48 to $48"",""Q1"":""No, the cost is always $1.00."",""Q2"":""There is no limit"",""Q3"":""The better I perform the higher my bonus will be."",""Q4"":""No, the structure of the web will be different each time.""}","{'Q0': '$-48 to $48', 'Q1': 'No, the cost is always $1.00.', 'Q2': 'There is no limit', 'Q3': 'The better I perform the higher my bonus will be.', 'Q4': 'No, the amount of cash at each node of the web may be different each time.'}",,,,,,,,,,,,,,,,,
,survey-multi-choice,310909.0,0.0-1.2-1.2,,26758.0,2508,"{""Q0"":""$-48 to $48"",""Q1"":""No, the cost is always $1.00."",""Q2"":""One time"",""Q3"":""I will receive a $1 bonus if I perform well, otherwise I will receive no bonus."",""Q4"":""No, the structure of the web will be different each time.""}","{'Q0': '$-48 to $48', 'Q1': 'No, the cost is always $1.00.', 'Q2': 'There is no limit', 'Q3': 'The better I perform the higher my bonus will be.', 'Q4': 'No, the amount of cash at each node of the web may be different each time.'}",,,,,,,,,,,,,,,,,
,survey-multi-choice,335863.0,0.0-1.0-1.0,,63163.0,2750,"{""Q0"":""$-48 to $48"",""Q1"":""No, the cost is always $1.00."",""Q2"":""There is no limit"",""Q3"":""The better I perform the higher my bonus will be."",""Q4"":""No, the structure of the web will be different each time.""}","{'Q0': '$-48 to $48', 'Q1': 'No, the cost is always $1.00.', 'Q2': 'There is no limit', 'Q3': 'The better I perform the higher my bonus will be.', 'Q4': 'No, the amount of cash at each node of the web may be different each time.'}",,,,,,,,,,,,,,,,,
,survey-multi-choice,668306.0,0.0-1.1-1.1,,127809.0,2750,"{""Q0"":""$-10 to $10"",""Q1"":""No, the cost is always $1.00."",""Q2"":""There is no limit"",""Q3"":""The better I perform the higher my bonus will be."",""Q4"":""No, the structure of the web will be different each time.""}","{'Q0': '$-48 to $48', 'Q1': 'No, the cost is always $1.00.', 'Q2': 'There is no limit', 'Q3': 'The better I perform the higher my bonus will be.', 'Q4': 'No, the amount of cash at each node of the web may be different each time.'}",,,,,,,,,,,,,,,,,
,survey-multi-choice,970126.0,0.0-1.2-1.2,,81877.0,2750,"{""Q0"":""$-48 to $48"",""Q1"":""No, the cost is always $1.00."",""Q2"":""There is no limit"",""Q3"":""The better I perform the higher my bonus will be."",""Q4"":""No, the amount of cash at each node of the web may be different each time.""}","{'Q0': '$-48 to $48', 'Q1': 'No, the cost is always $1.00.', 'Q2': 'There is no limit', 'Q3': 'The better I perform the higher my bonus will be.', 'Q4': 'No, the amount of cash at each node of the web may be different each time.'}",,,,,,,,,,,,,,,,,
,survey-multi-choice,241644.0,0.0-1.0-1.0,,104304.0,2525,"{""Q0"":""$0 to $50"",""Q1"":""It is more costly to inspect 'sticky' nodes."",""Q2"":""One time"",""Q3"":""The better I perform the higher my bonus will be."",""Q4"":""Yes.""}","{'Q0': '$-48 to $48', 'Q1': 'No, the cost is always $1.00.', 'Q2': 'There is no limit', 'Q3': 'The better I perform the higher my bonus will be.', 'Q4': 'No, the amount of cash at each node of the web may be different each time.'}",,,,,,,,,,,,,,,,,
,survey-multi-choice,531409.0,0.0-1.1-1.1,,55000.0,2525,"{""Q0"":""$-48 to $48"",""Q1"":""No, the cost is always $1.00."",""Q2"":""There is no limit"",""Q3"":""The better I perform the higher my bonus will be."",""Q4"":""No, the structure of the web will be different each time.""}","{'Q0': '$-48 to $48', 'Q1': 'No, the cost is always $1.00.', 'Q2': 'There is no limit', 'Q3': 'The better I perform the higher my bonus will be.', 'Q4': 'No, the amount of cash at each node of the web may be different each time.'}",,,,,,,,,,,,,,,,,
,survey-multi-choice,162082.0,0.0-1.0-1.0,,53471.0,2493,"{""Q0"":""$-48 to $48"",""Q1"":""Yes, but the cost for clicking on nodes varies."",""Q2"":""One time"",""Q3"":""The better I perform the higher my bonus will be."",""Q4"":""No, the amount of cash at each node of the web may be different each time.""}","{'Q0': '$-48 to $48', 'Q1': 'No, the cost is always $1.00.', 'Q2': 'There is no limit', 'Q3': 'The better I perform the higher my bonus will be.', 'Q4': 'No, the amount of cash at each node of the web may be different each time.'}",,,,,,,,,,,,,,,,,
,survey-multi-choice,230585.0,0.0-1.1-1.1,,18598.0,2493,"{""Q0"":""$-48 to $48"",""Q1"":""No, the cost is always $1.00."",""Q2"":""There is no limit"",""Q3"":""The better I perform the higher my bonus will be."",""Q4"":""No, the amount of cash at each node of the web may be different each time.""}","{'Q0': '$-48 to $48', 'Q1': 'No, the cost is always $1.00.', 'Q2': 'There is no limit', 'Q3': 'The better I perform the higher my bonus will be.', 'Q4': 'No, the amount of cash at each node of the web may be different each time.'}",,,,,,,,,,,,,,,,,
,survey-multi-choice,131237.0,0.0-1.0-1.0,,26686,2410,"{""Q0"":""$-48 to $48"",""Q1"":""No, the cost is always $1.00."",""Q2"":""One time"",""Q3"":""The better I perform the higher my bonus will be."",""Q4"":""No, the amount of cash at each node of the web may be different each time.""}","{'Q0': '$-48 to $48', 'Q1': 'No, the cost is always $1.00.', 'Q2': 'There is no limit', 'Q3': 'The better I perform the higher my bonus will be.', 'Q4': 'No, the amount of cash at each node of the web may be different each time.'}",,,,,,,,,,,,,,,,,
,survey-multi-choice,178126.0,0.0-1.1-1.1,,7832,2410,"{""Q0"":""$-48 to $48"",""Q1"":""No, the cost is always $1.00."",""Q2"":""There is no limit"",""Q3"":""The better I perform the higher my bonus will be."",""Q4"":""No, the amount of cash at each node of the web may be different each time.""}","{'Q0': '$-48 to $48', 'Q1': 'No, the cost is always $1.00.', 'Q2': 'There is no limit', 'Q3': 'The better I perform the higher my bonus will be.', 'Q4': 'No, the amount of cash at each node of the web may be different each time.'}",,,,,,,,,,,,,,,,,
,survey-multi-choice,965379.0,0.0-3.0-3.0-0.0,,19545,2410,"{""Q0"":""No"",""Q1"":""No, the cost is always $1.00."",""Q2"":""There is no limit""}","{'Q0': 'No', 'Q1': 'No, the cost is always $1.00.', 'Q2': 'There is no limit'}",,,,,,,,,,,,,,,,,
,survey-multi-choice,1147988.0,0.0-3.0-5.0,,15220,2410,"{""Q0"":""$-4 to $4"",""Q1"":""$-8 to $8"",""Q2"":""$-48 to $48"",""Q3"":""No, the cost is always $1.00."",""Q4"":""Slightly motivated""}",,,,,,,,,,,,,,,,,,
,survey-multi-choice,151619.0,0.0-1.0-1.0,,25946.0,2751,"{""Q0"":""$-48 to $48"",""Q1"":""No, the cost is always $1.00."",""Q2"":""One time"",""Q3"":""The better I perform the higher my bonus will be."",""Q4"":""No, the amount of cash at each node of the web may be different each time.""}","{'Q0': '$-48 to $48', 'Q1': 'No, the cost is always $1.00.', 'Q2': 'There is no limit', 'Q3': 'The better I perform the higher my bonus will be.', 'Q4': 'No, the amount of cash at each node of the web may be different each time.'}",,,,,,,,,,,,,,,,,
,survey-multi-choice,177689.0,0.0-1.0-1.0,,42078.0,2617,"{""Q0"":""$-10 to $10"",""Q1"":""No, the cost is always $1.00."",""Q2"":""There is no limit"",""Q3"":""The better I perform the higher my bonus will be."",""Q4"":""No, the structure of the web will be different each time.""}","{'Q0': '$-48 to $48', 'Q1': 'No, the cost is always $1.00.', 'Q2': 'There is no limit', 'Q3': 'The better I perform the higher my bonus will be.', 'Q4': 'No, the amount of cash at each node of the web may be different each time.'}",,,,,,,,,,,,,,,,,
,survey-multi-choice,257069.0,0.0-1.1-1.1,,26962.0,2617,"{""Q0"":""$-48 to $48"",""Q1"":""No, the cost is always $1.00."",""Q2"":""There is no limit"",""Q3"":""The better I perform the higher my bonus will be."",""Q4"":""No, the structure of the web will be different each time.""}","{'Q0': '$-48 to $48', 'Q1': 'No, the cost is always $1.00.', 'Q2': 'There is no limit', 'Q3': 'The better I perform the higher my bonus will be.', 'Q4': 'No, the amount of cash at each node of the web may be different each time.'}",,,,,,,,,,,,,,,,,
,survey-multi-choice,428792.0,0.0-1.0-1.0,,324043,2618,"{""Q0"":""$-48 to $48"",""Q1"":""No, the cost is always $1.00."",""Q2"":""There is no limit"",""Q3"":""The better I perform the higher my bonus will be."",""Q4"":""No, the amount of cash at each node of the web may be different each time.""}","{'Q0': '$-48 to $48', 'Q1': 'No, the cost is always $1.00.', 'Q2': 'There is no limit', 'Q3': 'The better I perform the higher my bonus will be.', 'Q4': 'No, the amount of cash at each node of the web may be different each time.'}",,,,,,,,,,,,,,,,,
,survey-multi-choice,127072.0,0.0-1.0-1.0,,28721.0,2527,"{""Q0"":""$-48 to $48"",""Q1"":""No, the cost is always $1.00."",""Q2"":""One time"",""Q3"":""The better I perform the higher my bonus will be."",""Q4"":""No, the structure of the web will be different each time.""}","{'Q0': '$-48 to $48', 'Q1': 'No, the cost is always $1.00.', 'Q2': 'There is no limit', 'Q3': 'The better I perform the higher my bonus will be.', 'Q4': 'No, the amount of cash at each node of the web may be different each time.'}",,,,,,,,,,,,,,,,,
,survey-multi-choice,204406.0,0.0-1.1-1.1,,20238.0,2527,"{""Q0"":""$-48 to $48"",""Q1"":""No, the cost is always $1.00."",""Q2"":""One time"",""Q3"":""The better I perform the higher my bonus will be."",""Q4"":""No, the amount of cash at each node of the web may be different each time.""}","{'Q0': '$-48 to $48', 'Q1': 'No, the cost is always $1.00.', 'Q2': 'There is no limit', 'Q3': 'The better I perform the higher my bonus will be.', 'Q4': 'No, the amount of cash at each node of the web may be different each time.'}",,,,,,,,,,,,,,,,,
,survey-multi-choice,120647.0,0.0-1.0-1.0,,32307,2462,"{""Q0"":""$-48 to $48"",""Q1"":""No, the cost is always $1.00."",""Q2"":""There is no limit"",""Q3"":""The better I perform the higher my bonus will be."",""Q4"":""No, the structure of the web will be different each time.""}","{'Q0': '$-48 to $48', 'Q1': 'No, the cost is always $1.00.', 'Q2': 'There is no limit', 'Q3': 'The better I perform the higher my bonus will be.', 'Q4': 'No, the amount of cash at each node of the web may be different each time.'}",,,,,,,,,,,,,,,,,
,survey-multi-choice,240615.0,0.0-1.1-1.1,,25515,2462,"{""Q0"":""$-48 to $48"",""Q1"":""No, the cost is always $1.00."",""Q2"":""One time"",""Q3"":""The better I perform the higher my bonus will be."",""Q4"":""No, the structure of the web will be different each time.""}","{'Q0': '$-48 to $48', 'Q1': 'No, the cost is always $1.00.', 'Q2': 'There is no limit', 'Q3': 'The better I perform the higher my bonus will be.', 'Q4': 'No, the amount of cash at each node of the web may be different each time.'}",,,,,,,,,,,,,,,,,
,survey-multi-choice,352212.0,0.0-1.2-1.2,,14065,2462,"{""Q0"":""$-48 to $48"",""Q1"":""No, the cost is always $1.00."",""Q2"":""There is no limit"",""Q3"":""The better I perform the higher my bonus will be."",""Q4"":""No, the amount of cash at each node of the web may be different each time.""}","{'Q0': '$-48 to $48', 'Q1': 'No, the cost is always $1.00.', 'Q2': 'There is no limit', 'Q3': 'The better I perform the higher my bonus will be.', 'Q4': 'No, the amount of cash at each node of the web may be different each time.'}",,,,,,,,,,,,,,,,,
,survey-multi-choice,197202.0,0.0-1.0-1.0,,50733.0,2377,"{""Q0"":""$-48 to $48"",""Q1"":""No, the cost is always $1.00."",""Q2"":""One time"",""Q3"":""I will receive a $1 bonus if I perform well, otherwise I will receive no bonus."",""Q4"":""No, the structure of the web will be different each time.""}","{'Q0': '$-48 to $48', 'Q1': 'No, the cost is always $1.00.', 'Q2': 'There is no limit', 'Q3': 'The better I perform the higher my bonus will be.', 'Q4': 'No, the amount of cash at each node of the web may be different each time.'}",,,,,,,,,,,,,,,,,
,survey-multi-choice,377484.0,0.0-1.1-1.1,,48979.0,2377,"{""Q0"":""$-48 to $48"",""Q1"":""There is no cost for clicking on nodes."",""Q2"":""One time"",""Q3"":""The better I perform the higher my bonus will be."",""Q4"":""No, the structure of the web will be different each time.""}","{'Q0': '$-48 to $48', 'Q1': 'No, the cost is always $1.00.', 'Q2': 'There is no limit', 'Q3': 'The better I perform the higher my bonus will be.', 'Q4': 'No, the amount of cash at each node of the web may be different each time.'}",,,,,,,,,,,,,,,,,
,survey-multi-choice,80811.0,0.0-1.0-1.0,,20089,2702,"{""Q0"":""$-48 to $48"",""Q1"":""No, the cost is always $1.00."",""Q2"":""There is no limit"",""Q3"":""The better I perform the higher my bonus will be."",""Q4"":""No, the amount of cash at each node of the web may be different each time.""}","{'Q0': '$-48 to $48', 'Q1': 'No, the cost is always $1.00.', 'Q2': 'There is no limit', 'Q3': 'The better I perform the higher my bonus will be.', 'Q4': 'No, the amount of cash at each node of the web may be different each time.'}",,,,,,,,,,,,,,,,,
,survey-multi-choice,73863.0,0.0-1.0-1.0,,41198.0,2619,"{""Q0"":""$-48 to $48"",""Q1"":""Yes, but the cost for clicking on nodes varies."",""Q2"":""One time"",""Q3"":""No."",""Q4"":""No, the structure of the web will be different each time.""}","{'Q0': '$-48 to $48', 'Q1': 'No, the cost is always $1.00.', 'Q2': 'There is no limit', 'Q3': 'The better I perform the higher my bonus will be.', 'Q4': 'No, the amount of cash at each node of the web may be different each time.'}",,,,,,,,,,,,,,,,,
,survey-multi-choice,236950.0,0.0-1.1-1.1,,95301.0,2619,"{""Q0"":""$-48 to $48"",""Q1"":""Yes, but the cost for clicking on nodes varies."",""Q2"":""One time"",""Q3"":""No."",""Q4"":""No, the amount of cash at each node of the web may be different each time.""}","{'Q0': '$-48 to $48', 'Q1': 'No, the cost is always $1.00.', 'Q2': 'There is no limit', 'Q3': 'The better I perform the higher my bonus will be.', 'Q4': 'No, the amount of cash at each node of the web may be different each time.'}",,,,,,,,,,,,,,,,,
,survey-multi-choice,249675.0,0.0-1.0-1.0,,40628.0,976,"{""Q0"":""$-48 to $48"",""Q1"":""No, the cost is always $1.00."",""Q2"":""There is no limit"",""Q3"":""The better I perform the higher my bonus will be."",""Q4"":""No, the amount of cash at each node of the web may be different each time.""}","{'Q0': '$-48 to $48', 'Q1': 'No, the cost is always $1.00.', 'Q2': 'There is no limit', 'Q3': 'The better I perform the higher my bonus will be.', 'Q4': 'No, the amount of cash at each node of the web may be different each time.'}",,,,,,,,,,,,,,,,,
,survey-multi-choice,203729.0,0.0-1.0-1.0,,51378.0,2752,"{""Q0"":""$-10 to $10"",""Q1"":""No, the cost is always $1.00."",""Q2"":""There is no limit"",""Q3"":""The better I perform the higher my bonus will be."",""Q4"":""No, the amount of cash at each node of the web may be different each time.""}","{'Q0': '$-48 to $48', 'Q1': 'No, the cost is always $1.00.', 'Q2': 'There is no limit', 'Q3': 'The better I perform the higher my bonus will be.', 'Q4': 'No, the amount of cash at each node of the web may be different each time.'}",,,,,,,,,,,,,,,,,
,survey-multi-choice,288119.0,0.0-1.1-1.1,,28238.0,2752,"{""Q0"":""$-48 to $48"",""Q1"":""No, the cost is always $1.00."",""Q2"":""There is no limit"",""Q3"":""The better I perform the higher my bonus will be."",""Q4"":""No, the amount of cash at each node of the web may be different each time.""}","{'Q0': '$-48 to $48', 'Q1': 'No, the cost is always $1.00.', 'Q2': 'There is no limit', 'Q3': 'The better I perform the higher my bonus will be.', 'Q4': 'No, the amount of cash at each node of the web may be different each time.'}",,,,,,,,,,,,,,,,,
,survey-multi-choice,156533.0,0.0-1.0-1.0,,31035,2690,"{""Q0"":""$-48 to $48"",""Q1"":""No, the cost is always $1.00."",""Q2"":""There is no limit"",""Q3"":""The better I perform the higher my bonus will be."",""Q4"":""No, the amount of cash at each node of the web may be different each time.""}","{'Q0': '$-48 to $48', 'Q1': 'No, the cost is always $1.00.', 'Q2': 'There is no limit', 'Q3': 'The better I perform the higher my bonus will be.', 'Q4': 'No, the amount of cash at each node of the web may be different each time.'}",,,,,,,,,,,,,,,,,
,survey-multi-choice,512780.0,0.0-3.0-2.0-0.0,,41664,2690,"{""Q0"":""No"",""Q1"":""No, the cost is always $1.00."",""Q2"":""There is no limit""}","{'Q0': 'No', 'Q1': 'No, the cost is always $1.00.', 'Q2': 'There is no limit'}",,,,,,,,,,,,,,,,,
,survey-multi-choice,76216.0,0.0-1.0-1.0,,12646,2500,"{""Q0"":""$-48 to $48"",""Q1"":""No, the cost is always $1.00."",""Q2"":""There is no limit"",""Q3"":""The better I perform the higher my bonus will be."",""Q4"":""No, the amount of cash at each node of the web may be different each time.""}","{'Q0': '$-48 to $48', 'Q1': 'No, the cost is always $1.00.', 'Q2': 'There is no limit', 'Q3': 'The better I perform the higher my bonus will be.', 'Q4': 'No, the amount of cash at each node of the web may be different each time.'}",,,,,,,,,,,,,,,,,
,survey-multi-choice,137409.0,0.0-1.0-1.0,,30616.0,860,"{""Q0"":""$-48 to $48"",""Q1"":""Yes, but the cost for clicking on nodes varies."",""Q2"":""One time"",""Q3"":""The better I perform the higher my bonus will be."",""Q4"":""No, the amount of cash at each node of the web may be different each time.""}","{'Q0': '$-48 to $48', 'Q1': 'No, the cost is always $1.00.', 'Q2': 'There is no limit', 'Q3': 'The better I perform the higher my bonus will be.', 'Q4': 'No, the amount of cash at each node of the web may be different each time.'}",,,,,,,,,,,,,,,,,
,survey-multi-choice,82081.0,0.0-1.0-1.0,,31502.0,2714,"{""Q0"":""$-48 to $48"",""Q1"":""No, the cost is always $1.00."",""Q2"":""There is no limit"",""Q3"":""The better I perform the higher my bonus will be."",""Q4"":""No, the structure of the web will be different each time.""}","{'Q0': '$-48 to $48', 'Q1': 'No, the cost is always $1.00.', 'Q2': 'There is no limit', 'Q3': 'The better I perform the higher my bonus will be.', 'Q4': 'No, the amount of cash at each node of the web may be different each time.'}",,,,,,,,,,,,,,,,,
,survey-multi-choice,135926.0,0.0-1.1-1.1,,17892.0,2714,"{""Q0"":""$-48 to $48"",""Q1"":""No, the cost is always $1.00."",""Q2"":""There is no limit"",""Q3"":""The better I perform the higher my bonus will be."",""Q4"":""No, the structure of the web will be different each time.""}","{'Q0': '$-48 to $48', 'Q1': 'No, the cost is always $1.00.', 'Q2': 'There is no limit', 'Q3': 'The better I perform the higher my bonus will be.', 'Q4': 'No, the amount of cash at each node of the web may be different each time.'}",,,,,,,,,,,,,,,,,
,survey-multi-choice,263462.0,0.0-1.0-1.0,,40722.0,2620,"{""Q0"":""$-48 to $48"",""Q1"":""No, the cost is always $1.00."",""Q2"":""There is no limit"",""Q3"":""The better I perform the higher my bonus will be."",""Q4"":""No, the structure of the web will be different each time.""}","{'Q0': '$-48 to $48', 'Q1': 'No, the cost is always $1.00.', 'Q2': 'There is no limit', 'Q3': 'The better I perform the higher my bonus will be.', 'Q4': 'No, the amount of cash at each node of the web may be different each time.'}",,,,,,,,,,,,,,,,,
,survey-multi-choice,648681.0,0.0-1.1-1.1,,128007.0,2620,"{""Q0"":""$-48 to $48"",""Q1"":""No, the cost is always $1.00."",""Q2"":""There is no limit"",""Q3"":""The better I perform the higher my bonus will be."",""Q4"":""No, the structure of the web will be different each time.""}","{'Q0': '$-48 to $48', 'Q1': 'No, the cost is always $1.00.', 'Q2': 'There is no limit', 'Q3': 'The better I perform the higher my bonus will be.', 'Q4': 'No, the amount of cash at each node of the web may be different each time.'}",,,,,,,,,,,,,,,,,
,survey-multi-choice,791065.0,0.0-1.2-1.2,,72189.0,2620,"{""Q0"":""$-48 to $48"",""Q1"":""No, the cost is always $1.00."",""Q2"":""There is no limit"",""Q3"":""The better I perform the higher my bonus will be."",""Q4"":""Yes.""}","{'Q0': '$-48 to $48', 'Q1': 'No, the cost is always $1.00.', 'Q2': 'There is no limit', 'Q3': 'The better I perform the higher my bonus will be.', 'Q4': 'No, the amount of cash at each node of the web may be different each time.'}",,,,,,,,,,,,,,,,,
,survey-multi-choice,325676.0,0.0-1.0-1.0,,60702.0,2600,"{""Q0"":""$-10 to $10"",""Q1"":""No, the cost is always $1.00."",""Q2"":""There is no limit"",""Q3"":""The better I perform the higher my bonus will be."",""Q4"":""No, the amount of cash at each node of the web may be different each time.""}","{'Q0': '$-48 to $48', 'Q1': 'No, the cost is always $1.00.', 'Q2': 'There is no limit', 'Q3': 'The better I perform the higher my bonus will be.', 'Q4': 'No, the amount of cash at each node of the web may be different each time.'}",,,,,,,,,,,,,,,,,
,survey-multi-choice,408654.0,0.0-1.1-1.1,,25847.0,2600,"{""Q0"":""$-48 to $48"",""Q1"":""No, the cost is always $1.00."",""Q2"":""There is no limit"",""Q3"":""The better I perform the higher my bonus will be."",""Q4"":""No, the amount of cash at each node of the web may be different each time.""}","{'Q0': '$-48 to $48', 'Q1': 'No, the cost is always $1.00.', 'Q2': 'There is no limit', 'Q3': 'The better I perform the higher my bonus will be.', 'Q4': 'No, the amount of cash at each node of the web may be different each time.'}",,,,,,,,,,,,,,,,,
,survey-multi-choice,134129.0,0.0-1.0-1.0,,23314,2451,"{""Q0"":""$-48 to $48"",""Q1"":""No, the cost is always $1.00."",""Q2"":""One time"",""Q3"":""The better I perform the higher my bonus will be."",""Q4"":""No, the amount of cash at each node of the web may be different each time.""}","{'Q0': '$-48 to $48', 'Q1': 'No, the cost is always $1.00.', 'Q2': 'There is no limit', 'Q3': 'The better I perform the higher my bonus will be.', 'Q4': 'No, the amount of cash at each node of the web may be different each time.'}",,,,,,,,,,,,,,,,,
,survey-multi-choice,246465.0,0.0-1.1-1.1,,17566,2451,"{""Q0"":""$-48 to $48"",""Q1"":""No, the cost is always $1.00."",""Q2"":""There is no limit"",""Q3"":""The better I perform the higher my bonus will be."",""Q4"":""No, the amount of cash at each node of the web may be different each time.""}","{'Q0': '$-48 to $48', 'Q1': 'No, the cost is always $1.00.', 'Q2': 'There is no limit', 'Q3': 'The better I perform the higher my bonus will be.', 'Q4': 'No, the amount of cash at each node of the web may be different each time.'}",,,,,,,,,,,,,,,,,
,survey-multi-choice,678588.0,0.0-3.0-2.0-0.0,,41384,2451,"{""Q0"":""No"",""Q1"":""No, the cost is always $1.00."",""Q2"":""There is no limit""}","{'Q0': 'No', 'Q1': 'No, the cost is always $1.00.', 'Q2': 'There is no limit'}",,,,,,,,,,,,,,,,,
,survey-multi-choice,1126007.0,0.0-3.0-6.0,,43863,2451,"{""Q0"":""$-4 to $4"",""Q1"":""$-8 to $8"",""Q2"":""$-48 to $48"",""Q3"":""No, the cost is always $1.00."",""Q4"":""Very motivated""}",,,,,,,,,,,,,,,,,,
,survey-multi-choice,188659.0,0.0-1.0-1.0,,50302.0,2421,"{""Q0"":""$-48 to $48"",""Q1"":""Yes, but the cost for clicking on nodes varies."",""Q2"":""One time"",""Q3"":""The better I perform the higher my bonus will be."",""Q4"":""Yes.""}","{'Q0': '$-48 to $48', 'Q1': 'No, the cost is always $1.00.', 'Q2': 'There is no limit', 'Q3': 'The better I perform the higher my bonus will be.', 'Q4': 'No, the amount of cash at each node of the web may be different each time.'}",,,,,,,,,,,,,,,,,
,survey-multi-choice,378371.0,0.0-1.0-1.0,,74374.0,2401,"{""Q0"":""$-48 to $48"",""Q1"":""No, the cost is always $1.00."",""Q2"":""There is no limit"",""Q3"":""The better I perform the higher my bonus will be."",""Q4"":""No, the structure of the web will be different each time.""}","{'Q0': '$-48 to $48', 'Q1': 'No, the cost is always $1.00.', 'Q2': 'There is no limit', 'Q3': 'The better I perform the higher my bonus will be.', 'Q4': 'No, the amount of cash at each node of the web may be different each time.'}",,,,,,,,,,,,,,,,,
,survey-multi-choice,598470.0,0.0-1.1-1.1,,85702.0,2401,"{""Q0"":""$-48 to $48"",""Q1"":""No, the cost is always $1.00."",""Q2"":""There is no limit"",""Q3"":""The better I perform the higher my bonus will be."",""Q4"":""No, the amount of cash at each node of the web may be different each time.""}","{'Q0': '$-48 to $48', 'Q1': 'No, the cost is always $1.00.', 'Q2': 'There is no limit', 'Q3': 'The better I perform the higher my bonus will be.', 'Q4': 'No, the amount of cash at each node of the web may be different each time.'}",,,,,,,,,,,,,,,,,
,survey-multi-choice,45432.0,0.0-1.0-1.0,,18362.0,2812,"{""Q0"":""$0 to $50"",""Q1"":""Yes, but the cost for clicking on nodes varies."",""Q2"":""Three times"",""Q3"":""The better I perform the higher my bonus will be."",""Q4"":""Yes.""}","{'Q0': '$-48 to $48', 'Q1': 'No, the cost is always $1.00.', 'Q2': 'There is no limit', 'Q3': 'The better I perform the higher my bonus will be.', 'Q4': 'No, the amount of cash at each node of the web may be different each time.'}",,,,,,,,,,,,,,,,,
,survey-multi-choice,234199.0,0.0-1.0-1.0,,59856.0,2813,"{""Q0"":""$-48 to $48"",""Q1"":""There is no cost for clicking on nodes."",""Q2"":""There is no limit"",""Q3"":""The better I perform the higher my bonus will be."",""Q4"":""No, the structure of the web will be different each time.""}","{'Q0': '$-48 to $48', 'Q1': 'No, the cost is always $1.00.', 'Q2': 'There is no limit', 'Q3': 'The better I perform the higher my bonus will be.', 'Q4': 'No, the amount of cash at each node of the web may be different each time.'}",,,,,,,,,,,,,,,,,
,survey-multi-choice,266319.0,0.0-1.1-1.1,,15504.0,2813,"{""Q0"":""$-48 to $48"",""Q1"":""No, the cost is always $1.00."",""Q2"":""There is no limit"",""Q3"":""The better I perform the higher my bonus will be."",""Q4"":""No, the structure of the web will be different each time.""}","{'Q0': '$-48 to $48', 'Q1': 'No, the cost is always $1.00.', 'Q2': 'There is no limit', 'Q3': 'The better I perform the higher my bonus will be.', 'Q4': 'No, the amount of cash at each node of the web may be different each time.'}",,,,,,,,,,,,,,,,,
,survey-multi-choice,206867.0,0.0-1.0-1.0,,47911.0,2753,"{""Q0"":""$-48 to $48"",""Q1"":""No, the cost is always $1.00."",""Q2"":""Five times"",""Q3"":""The better I perform the higher my bonus will be."",""Q4"":""No, the structure of the web will be different each time.""}","{'Q0': '$-48 to $48', 'Q1': 'No, the cost is always $1.00.', 'Q2': 'There is no limit', 'Q3': 'The better I perform the higher my bonus will be.', 'Q4': 'No, the amount of cash at each node of the web may be different each time.'}",,,,,,,,,,,,,,,,,
,survey-multi-choice,193645.0,0.0-1.0-1.0,,76924,2715,"{""Q0"":""$-48 to $48"",""Q1"":""No, the cost is always $1.00."",""Q2"":""There is no limit"",""Q3"":""The better I perform the higher my bonus will be."",""Q4"":""No, the amount of cash at each node of the web may be different each time.""}","{'Q0': '$-48 to $48', 'Q1': 'No, the cost is always $1.00.', 'Q2': 'There is no limit', 'Q3': 'The better I perform the higher my bonus will be.', 'Q4': 'No, the amount of cash at each node of the web may be different each time.'}",,,,,,,,,,,,,,,,,
,survey-multi-choice,130142.0,0.0-1.0-1.0,,26636.0,2704,"{""Q0"":""$-48 to $48"",""Q1"":""No, the cost is always $1.00."",""Q2"":""One time"",""Q3"":""The better I perform the higher my bonus will be."",""Q4"":""No, the amount of cash at each node of the web may be different each time.""}","{'Q0': '$-48 to $48', 'Q1': 'No, the cost is always $1.00.', 'Q2': 'There is no limit', 'Q3': 'The better I perform the higher my bonus will be.', 'Q4': 'No, the amount of cash at each node of the web may be different each time.'}",,,,,,,,,,,,,,,,,
,survey-multi-choice,183894.0,0.0-1.1-1.1,,27273.0,2704,"{""Q0"":""$-48 to $48"",""Q1"":""No, the cost is always $1.00."",""Q2"":""One time"",""Q3"":""The better I perform the higher my bonus will be."",""Q4"":""No, the structure of the web will be different each time.""}","{'Q0': '$-48 to $48', 'Q1': 'No, the cost is always $1.00.', 'Q2': 'There is no limit', 'Q3': 'The better I perform the higher my bonus will be.', 'Q4': 'No, the amount of cash at each node of the web may be different each time.'}",,,,,,,,,,,,,,,,,
,survey-multi-choice,70149.0,0.0-1.0-1.0,,28190.0,2529,"{""Q0"":""$-48 to $48"",""Q1"":""No, the cost is always $1.00."",""Q2"":""There is no limit"",""Q3"":""The better I perform the higher my bonus will be."",""Q4"":""Yes.""}","{'Q0': '$-48 to $48', 'Q1': 'No, the cost is always $1.00.', 'Q2': 'There is no limit', 'Q3': 'The better I perform the higher my bonus will be.', 'Q4': 'No, the amount of cash at each node of the web may be different each time.'}",,,,,,,,,,,,,,,,,
,survey-multi-choice,446681.0,0.0-1.0-1.0,,16695.0,2814,"{""Q0"":""$-48 to $48"",""Q1"":""No, the cost is always $1.00."",""Q2"":""There is no limit"",""Q3"":""The better I perform the higher my bonus will be."",""Q4"":""No, the structure of the web will be different each time.""}","{'Q0': '$-48 to $48', 'Q1': 'No, the cost is always $1.00.', 'Q2': 'There is no limit', 'Q3': 'The better I perform the higher my bonus will be.', 'Q4': 'No, the amount of cash at each node of the web may be different each time.'}",,,,,,,,,,,,,,,,,
,survey-multi-choice,144983.0,0.0-1.0-1.0,,32053.0,2815,"{""Q0"":""$-48 to $48"",""Q1"":""Yes, but the cost for clicking on nodes varies."",""Q2"":""There is no limit"",""Q3"":""I will receive a $1 bonus if I perform well, otherwise I will receive no bonus."",""Q4"":""No, the amount of cash at each node of the web may be different each time.""}","{'Q0': '$-48 to $48', 'Q1': 'No, the cost is always $1.00.', 'Q2': 'There is no limit', 'Q3': 'The better I perform the higher my bonus will be.', 'Q4': 'No, the amount of cash at each node of the web may be different each time.'}",,,,,,,,,,,,,,,,,
,survey-multi-choice,250205.0,0.0-1.1-1.1,,34152.0,2815,"{""Q0"":""$-48 to $48"",""Q1"":""No, the cost is always $1.00."",""Q2"":""There is no limit"",""Q3"":""The better I perform the higher my bonus will be."",""Q4"":""Yes.""}","{'Q0': '$-48 to $48', 'Q1': 'No, the cost is always $1.00.', 'Q2': 'There is no limit', 'Q3': 'The better I perform the higher my bonus will be.', 'Q4': 'No, the amount of cash at each node of the web may be different each time.'}",,,,,,,,,,,,,,,,,
,survey-multi-choice,383202.0,0.0-1.2-1.2,,45457.0,2815,"{""Q0"":""$-10 to $10"",""Q1"":""No, the cost is always $1.00."",""Q2"":""There is no limit"",""Q3"":""The better I perform the higher my bonus will be."",""Q4"":""No, the structure of the web will be different each time.""}","{'Q0': '$-48 to $48', 'Q1': 'No, the cost is always $1.00.', 'Q2': 'There is no limit', 'Q3': 'The better I perform the higher my bonus will be.', 'Q4': 'No, the amount of cash at each node of the web may be different each time.'}",,,,,,,,,,,,,,,,,
,survey-multi-choice,317350.0,0.0-1.0-1.0,,26732,2530,"{""Q0"":""$-48 to $48"",""Q1"":""No, the cost is always $1.00."",""Q2"":""There is no limit"",""Q3"":""The better I perform the higher my bonus will be."",""Q4"":""No, the amount of cash at each node of the web may be different each time.""}","{'Q0': '$-48 to $48', 'Q1': 'No, the cost is always $1.00.', 'Q2': 'There is no limit', 'Q3': 'The better I perform the higher my bonus will be.', 'Q4': 'No, the amount of cash at each node of the web may be different each time.'}",,,,,,,,,,,,,,,,,
,survey-multi-choice,102977.0,0.0-1.0-1.0,,34559.0,2531,"{""Q0"":""$0 to $50"",""Q1"":""No, the cost is always $1.00."",""Q2"":""One time"",""Q3"":""The better I perform the higher my bonus will be."",""Q4"":""No, the amount of cash at each node of the web may be different each time.""}","{'Q0': '$-48 to $48', 'Q1': 'No, the cost is always $1.00.', 'Q2': 'There is no limit', 'Q3': 'The better I perform the higher my bonus will be.', 'Q4': 'No, the amount of cash at each node of the web may be different each time.'}",,,,,,,,,,,,,,,,,
,survey-multi-choice,141028.0,0.0-1.1-1.1,,14018.0,2531,"{""Q0"":""$-48 to $48"",""Q1"":""No, the cost is always $1.00."",""Q2"":""One time"",""Q3"":""The better I perform the higher my bonus will be."",""Q4"":""No, the amount of cash at each node of the web may be different each time.""}","{'Q0': '$-48 to $48', 'Q1': 'No, the cost is always $1.00.', 'Q2': 'There is no limit', 'Q3': 'The better I perform the higher my bonus will be.', 'Q4': 'No, the amount of cash at each node of the web may be different each time.'}",,,,,,,,,,,,,,,,,
,survey-multi-choice,115478.0,0.0-1.0-1.0,,25547,2532,"{""Q0"":""$-48 to $48"",""Q1"":""No, the cost is always $1.00."",""Q2"":""One time"",""Q3"":""The better I perform the higher my bonus will be."",""Q4"":""No, the amount of cash at each node of the web may be different each time.""}","{'Q0': '$-48 to $48', 'Q1': 'No, the cost is always $1.00.', 'Q2': 'There is no limit', 'Q3': 'The better I perform the higher my bonus will be.', 'Q4': 'No, the amount of cash at each node of the web may be different each time.'}",,,,,,,,,,,,,,,,,
,survey-multi-choice,195464.0,0.0-1.1-1.1,,34474,2532,"{""Q0"":""$-48 to $48"",""Q1"":""No, the cost is always $1.00."",""Q2"":""One time"",""Q3"":""The better I perform the higher my bonus will be."",""Q4"":""No, the amount of cash at each node of the web may be different each time.""}","{'Q0': '$-48 to $48', 'Q1': 'No, the cost is always $1.00.', 'Q2': 'There is no limit', 'Q3': 'The better I perform the higher my bonus will be.', 'Q4': 'No, the amount of cash at each node of the web may be different each time.'}",,,,,,,,,,,,,,,,,
,survey-multi-choice,255797.0,0.0-1.2-1.2,,21463,2532,"{""Q0"":""$-48 to $48"",""Q1"":""No, the cost is always $1.00."",""Q2"":""There is no limit"",""Q3"":""The better I perform the higher my bonus will be."",""Q4"":""No, the amount of cash at each node of the web may be different each time.""}","{'Q0': '$-48 to $48', 'Q1': 'No, the cost is always $1.00.', 'Q2': 'There is no limit', 'Q3': 'The better I perform the higher my bonus will be.', 'Q4': 'No, the amount of cash at each node of the web may be different each time.'}",,,,,,,,,,,,,,,,,
,survey-multi-choice,117231.0,0.0-1.0-1.0,,15656.0,2444,"{""Q0"":""$-48 to $48"",""Q1"":""No, the cost is always $1.00."",""Q2"":""One time"",""Q3"":""The better I perform the higher my bonus will be."",""Q4"":""No, the structure of the web will be different each time.""}","{'Q0': '$-48 to $48', 'Q1': 'No, the cost is always $1.00.', 'Q2': 'There is no limit', 'Q3': 'The better I perform the higher my bonus will be.', 'Q4': 'No, the amount of cash at each node of the web may be different each time.'}",,,,,,,,,,,,,,,,,
,survey-multi-choice,194354.0,0.0-1.0-1.0,,51890.0,2622,"{""Q0"":""$-48 to $48"",""Q1"":""No, the cost is always $1.00."",""Q2"":""There is no limit"",""Q3"":""The better I perform the higher my bonus will be."",""Q4"":""No, the structure of the web will be different each time.""}","{'Q0': '$-48 to $48', 'Q1': 'No, the cost is always $1.00.', 'Q2': 'There is no limit', 'Q3': 'The better I perform the higher my bonus will be.', 'Q4': 'No, the amount of cash at each node of the web may be different each time.'}",,,,,,,,,,,,,,,,,
,survey-multi-choice,334054.0,0.0-1.0-1.0,,93721.0,2379,"{""Q0"":""$-48 to $48"",""Q1"":""No, the cost is always $1.00."",""Q2"":""One time"",""Q3"":""The better I perform the higher my bonus will be."",""Q4"":""No, the amount of cash at each node of the web may be different each time.""}","{'Q0': '$-48 to $48', 'Q1': 'No, the cost is always $1.00.', 'Q2': 'There is no limit', 'Q3': 'The better I perform the higher my bonus will be.', 'Q4': 'No, the amount of cash at each node of the web may be different each time.'}",,,,,,,,,,,,,,,,,
,survey-multi-choice,100726.0,0.0-1.0-1.0,,28917.0,2533,"{""Q0"":""$-48 to $48"",""Q1"":""No, the cost is always $1.00."",""Q2"":""There is no limit"",""Q3"":""The better I perform the higher my bonus will be."",""Q4"":""No, the amount of cash at each node of the web may be different each time.""}","{'Q0': '$-48 to $48', 'Q1': 'No, the cost is always $1.00.', 'Q2': 'There is no limit', 'Q3': 'The better I perform the higher my bonus will be.', 'Q4': 'No, the amount of cash at each node of the web may be different each time.'}",,,,,,,,,,,,,,,,,
,survey-multi-choice,99259.0,0.0-1.0-1.0,,20525,2534,"{""Q0"":""$-48 to $48"",""Q1"":""No, the cost is always $1.00."",""Q2"":""There is no limit"",""Q3"":""The better I perform the higher my bonus will be."",""Q4"":""No, the structure of the web will be different each time.""}","{'Q0': '$-48 to $48', 'Q1': 'No, the cost is always $1.00.', 'Q2': 'There is no limit', 'Q3': 'The better I perform the higher my bonus will be.', 'Q4': 'No, the amount of cash at each node of the web may be different each time.'}",,,,,,,,,,,,,,,,,
,survey-multi-choice,145108.0,0.0-1.1-1.1,,14528,2534,"{""Q0"":""$-48 to $48"",""Q1"":""No, the cost is always $1.00."",""Q2"":""There is no limit"",""Q3"":""The better I perform the higher my bonus will be."",""Q4"":""No, the amount of cash at each node of the web may be different each time.""}","{'Q0': '$-48 to $48', 'Q1': 'No, the cost is always $1.00.', 'Q2': 'There is no limit', 'Q3': 'The better I perform the higher my bonus will be.', 'Q4': 'No, the amount of cash at each node of the web may be different each time.'}",,,,,,,,,,,,,,,,,
,survey-multi-choice,217865.0,0.0-1.0-1.0,,55253.0,2479,"{""Q0"":""$-48 to $48"",""Q1"":""No, the cost is always $1.00."",""Q2"":""One time"",""Q3"":""The better I perform the higher my bonus will be."",""Q4"":""No, the amount of cash at each node of the web may be different each time.""}","{'Q0': '$-48 to $48', 'Q1': 'No, the cost is always $1.00.', 'Q2': 'There is no limit', 'Q3': 'The better I perform the higher my bonus will be.', 'Q4': 'No, the amount of cash at each node of the web may be different each time.'}",,,,,,,,,,,,,,,,,
,survey-multi-choice,348064.0,0.0-1.1-1.1,,39946.0,2479,"{""Q0"":""$-48 to $48"",""Q1"":""No, the cost is always $1.00."",""Q2"":""One time"",""Q3"":""The better I perform the higher my bonus will be."",""Q4"":""No, the amount of cash at each node of the web may be different each time.""}","{'Q0': '$-48 to $48', 'Q1': 'No, the cost is always $1.00.', 'Q2': 'There is no limit', 'Q3': 'The better I perform the higher my bonus will be.', 'Q4': 'No, the amount of cash at each node of the web may be different each time.'}",,,,,,,,,,,,,,,,,
,survey-multi-choice,148938.0,0.0-1.0-1.0,,29518,2623,"{""Q0"":""$-48 to $48"",""Q1"":""No, the cost is always $1.00."",""Q2"":""There is no limit"",""Q3"":""The better I perform the higher my bonus will be."",""Q4"":""No, the amount of cash at each node of the web may be different each time.""}","{'Q0': '$-48 to $48', 'Q1': 'No, the cost is always $1.00.', 'Q2': 'There is no limit', 'Q3': 'The better I perform the higher my bonus will be.', 'Q4': 'No, the amount of cash at each node of the web may be different each time.'}",,,,,,,,,,,,,,,,,
,survey-multi-choice,200153.0,0.0-1.0-1.0,,59231.0,2535,"{""Q0"":""$-48 to $48"",""Q1"":""No, the cost is always $1.00."",""Q2"":""One time"",""Q3"":""The better I perform the higher my bonus will be."",""Q4"":""No, the amount of cash at each node of the web may be different each time.""}","{'Q0': '$-48 to $48', 'Q1': 'No, the cost is always $1.00.', 'Q2': 'There is no limit', 'Q3': 'The better I perform the higher my bonus will be.', 'Q4': 'No, the amount of cash at each node of the web may be different each time.'}",,,,,,,,,,,,,,,,,
,survey-multi-choice,542828.0,0.0-1.0-1.0,,252067.0,2403,"{""Q0"":""$0 to $50"",""Q1"":""There is no cost for clicking on nodes."",""Q2"":""One time"",""Q3"":""I will receive a $1 bonus if I perform well, otherwise I will receive no bonus."",""Q4"":""Yes.""}","{'Q0': '$-48 to $48', 'Q1': 'No, the cost is always $1.00.', 'Q2': 'There is no limit', 'Q3': 'The better I perform the higher my bonus will be.', 'Q4': 'No, the amount of cash at each node of the web may be different each time.'}",,,,,,,,,,,,,,,,,
,survey-multi-choice,183892.0,0.0-1.0-1.0,,47320.0,187,"{""Q0"":""$-48 to $48"",""Q1"":""No, the cost is always $1.00."",""Q2"":""One time"",""Q3"":""The better I perform the higher my bonus will be."",""Q4"":""No, the amount of cash at each node of the web may be different each time.""}","{'Q0': '$-48 to $48', 'Q1': 'No, the cost is always $1.00.', 'Q2': 'There is no limit', 'Q3': 'The better I perform the higher my bonus will be.', 'Q4': 'No, the amount of cash at each node of the web may be different each time.'}",,,,,,,,,,,,,,,,,
,survey-multi-choice,56985.0,0.0-1.0-1.0,,13417.0,2502,"{""Q0"":""$-48 to $48"",""Q1"":""No, the cost is always $1.00."",""Q2"":""There is no limit"",""Q3"":""The better I perform the higher my bonus will be."",""Q4"":""Yes.""}","{'Q0': '$-48 to $48', 'Q1': 'No, the cost is always $1.00.', 'Q2': 'There is no limit', 'Q3': 'The better I perform the higher my bonus will be.', 'Q4': 'No, the amount of cash at each node of the web may be different each time.'}",,,,,,,,,,,,,,,,,
,survey-multi-choice,300763.0,0.0-1.0-1.0,,44528,2624,"{""Q0"":""$-48 to $48"",""Q1"":""No, the cost is always $1.00."",""Q2"":""One time"",""Q3"":""The better I perform the higher my bonus will be."",""Q4"":""No, the amount of cash at each node of the web may be different each time.""}","{'Q0': '$-48 to $48', 'Q1': 'No, the cost is always $1.00.', 'Q2': 'There is no limit', 'Q3': 'The better I perform the higher my bonus will be.', 'Q4': 'No, the amount of cash at each node of the web may be different each time.'}",,,,,,,,,,,,,,,,,
,survey-multi-choice,426117.0,0.0-1.1-1.1,,42469,2624,"{""Q0"":""$-48 to $48"",""Q1"":""No, the cost is always $1.00."",""Q2"":""There is no limit"",""Q3"":""The better I perform the higher my bonus will be."",""Q4"":""No, the amount of cash at each node of the web may be different each time.""}","{'Q0': '$-48 to $48', 'Q1': 'No, the cost is always $1.00.', 'Q2': 'There is no limit', 'Q3': 'The better I perform the higher my bonus will be.', 'Q4': 'No, the amount of cash at each node of the web may be different each time.'}",,,,,,,,,,,,,,,,,
,survey-multi-choice,93858.0,0.0-1.0-1.0,,40440,2414,"{""Q0"":""$-48 to $48"",""Q1"":""No, the cost is always $1.00."",""Q2"":""There is no limit"",""Q3"":""The better I perform the higher my bonus will be."",""Q4"":""No, the amount of cash at each node of the web may be different each time.""}","{'Q0': '$-48 to $48', 'Q1': 'No, the cost is always $1.00.', 'Q2': 'There is no limit', 'Q3': 'The better I perform the higher my bonus will be.', 'Q4': 'No, the amount of cash at each node of the web may be different each time.'}",,,,,,,,,,,,,,,,,
,survey-multi-choice,278370.0,0.0-1.0-1.0,,72559.0,2383,"{""Q0"":""$-48 to $48"",""Q1"":""No, the cost is always $1.00."",""Q2"":""One time"",""Q3"":""The better I perform the higher my bonus will be."",""Q4"":""No, the structure of the web will be different each time.""}","{'Q0': '$-48 to $48', 'Q1': 'No, the cost is always $1.00.', 'Q2': 'There is no limit', 'Q3': 'The better I perform the higher my bonus will be.', 'Q4': 'No, the amount of cash at each node of the web may be different each time.'}",,,,,,,,,,,,,,,,,
,survey-multi-choice,335882.0,0.0-1.1-1.1,,42085.0,2383,"{""Q0"":""$-48 to $48"",""Q1"":""There is no cost for clicking on nodes."",""Q2"":""One time"",""Q3"":""The better I perform the higher my bonus will be."",""Q4"":""No, the amount of cash at each node of the web may be different each time.""}","{'Q0': '$-48 to $48', 'Q1': 'No, the cost is always $1.00.', 'Q2': 'There is no limit', 'Q3': 'The better I perform the higher my bonus will be.', 'Q4': 'No, the amount of cash at each node of the web may be different each time.'}",,,,,,,,,,,,,,,,,
,survey-multi-choice,378956.0,0.0-1.2-1.2,,31646.0,2383,"{""Q0"":""$-48 to $48"",""Q1"":""There is no cost for clicking on nodes."",""Q2"":""One time"",""Q3"":""The better I perform the higher my bonus will be."",""Q4"":""No, the structure of the web will be different each time.""}","{'Q0': '$-48 to $48', 'Q1': 'No, the cost is always $1.00.', 'Q2': 'There is no limit', 'Q3': 'The better I perform the higher my bonus will be.', 'Q4': 'No, the amount of cash at each node of the web may be different each time.'}",,,,,,,,,,,,,,,,,
,survey-multi-choice,446545.0,0.0-1.3-1.3,,29285.0,2383,"{""Q0"":""$-48 to $48"",""Q1"":""There is no cost for clicking on nodes."",""Q2"":""One time"",""Q3"":""The better I perform the higher my bonus will be."",""Q4"":""No, the amount of cash at each node of the web may be different each time.""}","{'Q0': '$-48 to $48', 'Q1': 'No, the cost is always $1.00.', 'Q2': 'There is no limit', 'Q3': 'The better I perform the higher my bonus will be.', 'Q4': 'No, the amount of cash at each node of the web may be different each time.'}",,,,,,,,,,,,,,,,,
,survey-multi-choice,128609.0,0.0-1.0-1.0,,17661,2816,"{""Q0"":""$-48 to $48"",""Q1"":""No, the cost is always $1.00."",""Q2"":""There is no limit"",""Q3"":""The better I perform the higher my bonus will be."",""Q4"":""No, the structure of the web will be different each time.""}","{'Q0': '$-48 to $48', 'Q1': 'No, the cost is always $1.00.', 'Q2': 'There is no limit', 'Q3': 'The better I perform the higher my bonus will be.', 'Q4': 'No, the amount of cash at each node of the web may be different each time.'}",,,,,,,,,,,,,,,,,
,survey-multi-choice,174280.0,0.0-1.1-1.1,,11274,2816,"{""Q0"":""$-48 to $48"",""Q1"":""No, the cost is always $1.00."",""Q2"":""There is no limit"",""Q3"":""The better I perform the higher my bonus will be."",""Q4"":""No, the amount of cash at each node of the web may be different each time.""}","{'Q0': '$-48 to $48', 'Q1': 'No, the cost is always $1.00.', 'Q2': 'There is no limit', 'Q3': 'The better I perform the higher my bonus will be.', 'Q4': 'No, the amount of cash at each node of the web may be different each time.'}",,,,,,,,,,,,,,,,,
,survey-multi-choice,2099361.0,0.0-3.0-3.0-0.0,,41453,2816,"{""Q0"":""No"",""Q1"":""No, the cost is always $1.00."",""Q2"":""There is no limit""}","{'Q0': 'No', 'Q1': 'No, the cost is always $1.00.', 'Q2': 'There is no limit'}",,,,,,,,,,,,,,,,,
,survey-multi-choice,2346606.0,0.0-3.0-5.0,,44102,2816,"{""Q0"":""$-48 to $48"",""Q1"":""$-48 to $48"",""Q2"":""$-48 to $48"",""Q3"":""No, the cost is always $1.00."",""Q4"":""Very motivated""}",,,,,,,,,,,,,,,,,,
,survey-multi-choice,198902.0,0.0-1.0-1.0,,34430,2755,"{""Q0"":""$-48 to $48"",""Q1"":""No, the cost is always $1.00."",""Q2"":""There is no limit"",""Q3"":""The better I perform the higher my bonus will be."",""Q4"":""Yes.""}","{'Q0': '$-48 to $48', 'Q1': 'No, the cost is always $1.00.', 'Q2': 'There is no limit', 'Q3': 'The better I perform the higher my bonus will be.', 'Q4': 'No, the amount of cash at each node of the web may be different each time.'}",,,,,,,,,,,,,,,,,
,survey-multi-choice,310139.0,0.0-1.1-1.1,,23278,2755,"{""Q0"":""$-48 to $48"",""Q1"":""No, the cost is always $1.00."",""Q2"":""There is no limit"",""Q3"":""The better I perform the higher my bonus will be."",""Q4"":""No, the amount of cash at each node of the web may be different each time.""}","{'Q0': '$-48 to $48', 'Q1': 'No, the cost is always $1.00.', 'Q2': 'There is no limit', 'Q3': 'The better I perform the higher my bonus will be.', 'Q4': 'No, the amount of cash at each node of the web may be different each time.'}",,,,,,,,,,,,,,,,,
,survey-multi-choice,816925.0,0.0-3.0-3.0-0.0,,50203,2755,"{""Q0"":""No"",""Q1"":""No, the cost is always $1.00."",""Q2"":""There is no limit""}","{'Q0': 'No', 'Q1': 'No, the cost is always $1.00.', 'Q2': 'There is no limit'}",,,,,,,,,,,,,,,,,
,survey-multi-choice,1169513.0,0.0-3.0-5.0,,67597,2755,"{""Q0"":""$-8 to $8"",""Q1"":""$-4 to $4"",""Q2"":""$-48 to $48"",""Q3"":""No, the cost is always $1.00."",""Q4"":""Very motivated""}",,,,,,,,,,,,,,,,,,
,survey-multi-choice,109323.0,0.0-1.0-1.0,,26080,2716,"{""Q0"":""$-48 to $48"",""Q1"":""No, the cost is always $1.00."",""Q2"":""One time"",""Q3"":""The better I perform the higher my bonus will be."",""Q4"":""No, the amount of cash at each node of the web may be different each time.""}","{'Q0': '$-48 to $48', 'Q1': 'No, the cost is always $1.00.', 'Q2': 'There is no limit', 'Q3': 'The better I perform the higher my bonus will be.', 'Q4': 'No, the amount of cash at each node of the web may be different each time.'}",,,,,,,,,,,,,,,,,
,survey-multi-choice,175801.0,0.0-1.1-1.1,,11444,2716,"{""Q0"":""$-48 to $48"",""Q1"":""No, the cost is always $1.00."",""Q2"":""There is no limit"",""Q3"":""The better I perform the higher my bonus will be."",""Q4"":""No, the amount of cash at each node of the web may be different each time.""}","{'Q0': '$-48 to $48', 'Q1': 'No, the cost is always $1.00.', 'Q2': 'There is no limit', 'Q3': 'The better I perform the higher my bonus will be.', 'Q4': 'No, the amount of cash at each node of the web may be different each time.'}",,,,,,,,,,,,,,,,,
,survey-multi-choice,1067098.0,0.0-3.0-3.0-0.0,,23866,2716,"{""Q0"":""No"",""Q1"":""No, the cost is always $1.00."",""Q2"":""There is no limit""}","{'Q0': 'No', 'Q1': 'No, the cost is always $1.00.', 'Q2': 'There is no limit'}",,,,,,,,,,,,,,,,,
,survey-multi-choice,1271357.0,0.0-3.0-5.0,,22922,2716,"{""Q0"":""$-4 to $4"",""Q1"":""$-8 to $8"",""Q2"":""$-48 to $48"",""Q3"":""No, the cost is always $1.00."",""Q4"":""Slightly motivated""}",,,,,,,,,,,,,,,,,,
,survey-multi-choice,148868.0,0.0-1.0-1.0,,31894,2717,"{""Q0"":""$-48 to $48"",""Q1"":""No, the cost is always $1.00."",""Q2"":""One time"",""Q3"":""The better I perform the higher my bonus will be."",""Q4"":""No, the amount of cash at each node of the web may be different each time.""}","{'Q0': '$-48 to $48', 'Q1': 'No, the cost is always $1.00.', 'Q2': 'There is no limit', 'Q3': 'The better I perform the higher my bonus will be.', 'Q4': 'No, the amount of cash at each node of the web may be different each time.'}",,,,,,,,,,,,,,,,,
,survey-multi-choice,212484.0,0.0-1.1-1.1,,33492,2717,"{""Q0"":""$-48 to $48"",""Q1"":""No, the cost is always $1.00."",""Q2"":""There is no limit"",""Q3"":""The better I perform the higher my bonus will be."",""Q4"":""No, the amount of cash at each node of the web may be different each time.""}","{'Q0': '$-48 to $48', 'Q1': 'No, the cost is always $1.00.', 'Q2': 'There is no limit', 'Q3': 'The better I perform the higher my bonus will be.', 'Q4': 'No, the amount of cash at each node of the web may be different each time.'}",,,,,,,,,,,,,,,,,
,survey-multi-choice,619604.0,0.0-3.0-3.0-0.0,,37583,2717,"{""Q0"":""No"",""Q1"":""No, the cost is always $1.00."",""Q2"":""There is no limit""}","{'Q0': 'No', 'Q1': 'No, the cost is always $1.00.', 'Q2': 'There is no limit'}",,,,,,,,,,,,,,,,,
,survey-multi-choice,899475.0,0.0-3.0-5.0,,67057,2717,"{""Q0"":""$-8 to $8"",""Q1"":""$-4 to $4"",""Q2"":""$-48 to $48"",""Q3"":""No, the cost is always $1.00."",""Q4"":""Very motivated""}",,,,,,,,,,,,,,,,,,
,survey-multi-choice,151959.0,0.0-1.0-1.0,,32371,2627,"{""Q0"":""$-48 to $48"",""Q1"":""No, the cost is always $1.00."",""Q2"":""There is no limit"",""Q3"":""The better I perform the higher my bonus will be."",""Q4"":""No, the amount of cash at each node of the web may be different each time.""}","{'Q0': '$-48 to $48', 'Q1': 'No, the cost is always $1.00.', 'Q2': 'There is no limit', 'Q3': 'The better I perform the higher my bonus will be.', 'Q4': 'No, the amount of cash at each node of the web may be different each time.'}",,,,,,,,,,,,,,,,,
,survey-multi-choice,1349242.0,0.0-3.0-3.0-0.0,,35857,2627,"{""Q0"":""No"",""Q1"":""No, the cost is always $1.00."",""Q2"":""There is no limit""}","{'Q0': 'No', 'Q1': 'No, the cost is always $1.00.', 'Q2': 'There is no limit'}",,,,,,,,,,,,,,,,,
,survey-multi-choice,1639153.0,0.0-3.0-5.0,,63642,2627,"{""Q0"":""$-4 to $4"",""Q1"":""$-8 to $8"",""Q2"":""$-48 to $48"",""Q3"":""No, the cost is always $1.00."",""Q4"":""Very motivated""}",,,,,,,,,,,,,,,,,,
,survey-multi-choice,197184.0,0.0-1.0-1.0,,32059,2628,"{""Q0"":""$-48 to $48"",""Q1"":""No, the cost is always $1.00."",""Q2"":""There is no limit"",""Q3"":""The better I perform the higher my bonus will be."",""Q4"":""No, the amount of cash at each node of the web may be different each time.""}","{'Q0': '$-48 to $48', 'Q1': 'No, the cost is always $1.00.', 'Q2': 'There is no limit', 'Q3': 'The better I perform the higher my bonus will be.', 'Q4': 'No, the amount of cash at each node of the web may be different each time.'}",,,,,,,,,,,,,,,,,
,survey-multi-choice,1139954.0,0.0-3.0-3.0-0.0,,43999,2628,"{""Q0"":""No"",""Q1"":""No, the cost is always $1.00."",""Q2"":""There is no limit""}","{'Q0': 'No', 'Q1': 'No, the cost is always $1.00.', 'Q2': 'There is no limit'}",,,,,,,,,,,,,,,,,
,survey-multi-choice,1391068.0,0.0-3.0-5.0,,38294,2628,"{""Q0"":""$-4 to $4"",""Q1"":""$-8 to $8"",""Q2"":""$-48 to $48"",""Q3"":""No, the cost is always $1.00."",""Q4"":""Very motivated""}",,,,,,,,,,,,,,,,,,
,survey-multi-choice,187506.0,0.0-1.0-1.0,,82514,2629,"{""Q0"":""$-48 to $48"",""Q1"":""No, the cost is always $1.00."",""Q2"":""There is no limit"",""Q3"":""The better I perform the higher my bonus will be."",""Q4"":""No, the amount of cash at each node of the web may be different each time.""}","{'Q0': '$-48 to $48', 'Q1': 'No, the cost is always $1.00.', 'Q2': 'There is no limit', 'Q3': 'The better I perform the higher my bonus will be.', 'Q4': 'No, the amount of cash at each node of the web may be different each time.'}",,,,,,,,,,,,,,,,,
,survey-multi-choice,1002131.0,0.0-3.0-3.0-0.0,,99136,2629,"{""Q0"":""No"",""Q1"":""No, the cost is always $1.00."",""Q2"":""There is no limit""}","{'Q0': 'No', 'Q1': 'No, the cost is always $1.00.', 'Q2': 'There is no limit'}",,,,,,,,,,,,,,,,,
,survey-multi-choice,1218566.0,0.0-3.0-5.0,,42055,2629,"{""Q0"":""$-4 to $4"",""Q1"":""$-8 to $8"",""Q2"":""$-4 to $4"",""Q3"":""No, the cost is always $1.00."",""Q4"":""Very motivated""}",,,,,,,,,,,,,,,,,,
,survey-multi-choice,72189.0,0.0-1.0-1.0,,18550,2601,"{""Q0"":""$-48 to $48"",""Q1"":""No, the cost is always $1.00."",""Q2"":""There is no limit"",""Q3"":""The better I perform the higher my bonus will be."",""Q4"":""No, the amount of cash at each node of the web may be different each time.""}","{'Q0': '$-48 to $48', 'Q1': 'No, the cost is always $1.00.', 'Q2': 'There is no limit', 'Q3': 'The better I perform the higher my bonus will be.', 'Q4': 'No, the amount of cash at each node of the web may be different each time.'}",,,,,,,,,,,,,,,,,
,survey-multi-choice,1028003.0,0.0-3.0-3.0-0.0,,21351,2601,"{""Q0"":""No"",""Q1"":""No, the cost is always $1.00."",""Q2"":""There is no limit""}","{'Q0': 'No', 'Q1': 'No, the cost is always $1.00.', 'Q2': 'There is no limit'}",,,,,,,,,,,,,,,,,
,survey-multi-choice,1346979.0,0.0-3.0-5.0,,28154,2601,"{""Q0"":""$-4 to $4"",""Q1"":""$-8 to $8"",""Q2"":""$-48 to $48"",""Q3"":""No, the cost is always $1.00."",""Q4"":""Very motivated""}",,,,,,,,,,,,,,,,,,
,survey-multi-choice,118302.0,0.0-1.0-1.0,,20783,2537,"{""Q0"":""$-48 to $48"",""Q1"":""No, the cost is always $1.00."",""Q2"":""There is no limit"",""Q3"":""The better I perform the higher my bonus will be."",""Q4"":""No, the amount of cash at each node of the web may be different each time.""}","{'Q0': '$-48 to $48', 'Q1': 'No, the cost is always $1.00.', 'Q2': 'There is no limit', 'Q3': 'The better I perform the higher my bonus will be.', 'Q4': 'No, the amount of cash at each node of the web may be different each time.'}",,,,,,,,,,,,,,,,,
,survey-multi-choice,833203.0,0.0-3.0-3.0-0.0,,20320,2537,"{""Q0"":""No"",""Q1"":""No, the cost is always $1.00."",""Q2"":""There is no limit""}","{'Q0': 'No', 'Q1': 'No, the cost is always $1.00.', 'Q2': 'There is no limit'}",,,,,,,,,,,,,,,,,
,survey-multi-choice,1023311.0,0.0-3.0-5.0,,26882,2537,"{""Q0"":""$-4 to $4"",""Q1"":""$-8 to $8"",""Q2"":""$-48 to $48"",""Q3"":""No, the cost is always $1.00."",""Q4"":""Very motivated""}",,,,,,,,,,,,,,,,,,
,survey-multi-choice,208213.0,0.0-1.0-1.0,,46348,2538,"{""Q0"":""$-48 to $48"",""Q1"":""No, the cost is always $1.00."",""Q2"":""There is no limit"",""Q3"":""The better I perform the higher my bonus will be."",""Q4"":""No, the amount of cash at each node of the web may be different each time.""}","{'Q0': '$-48 to $48', 'Q1': 'No, the cost is always $1.00.', 'Q2': 'There is no limit', 'Q3': 'The better I perform the higher my bonus will be.', 'Q4': 'No, the amount of cash at each node of the web may be different each time.'}",,,,,,,,,,,,,,,,,
,survey-multi-choice,1147693.0,0.0-3.0-3.0-0.0,,39858,2538,"{""Q0"":""No"",""Q1"":""No, the cost is always $1.00."",""Q2"":""There is no limit""}","{'Q0': 'No', 'Q1': 'No, the cost is always $1.00.', 'Q2': 'There is no limit'}",,,,,,,,,,,,,,,,,
,survey-multi-choice,1403052.0,0.0-3.0-5.0,,82434,2538,"{""Q0"":""$-4 to $4"",""Q1"":""$-8 to $8"",""Q2"":""$-48 to $48"",""Q3"":""No, the cost is always $1.00."",""Q4"":""Very motivated""}",,,,,,,,,,,,,,,,,,
,survey-multi-choice,142181.0,0.0-1.0-1.0,,30504,2505,"{""Q0"":""$-48 to $48"",""Q1"":""No, the cost is always $1.00."",""Q2"":""There is no limit"",""Q3"":""The better I perform the higher my bonus will be."",""Q4"":""Yes.""}","{'Q0': '$-48 to $48', 'Q1': 'No, the cost is always $1.00.', 'Q2': 'There is no limit', 'Q3': 'The better I perform the higher my bonus will be.', 'Q4': 'No, the amount of cash at each node of the web may be different each time.'}",,,,,,,,,,,,,,,,,
,survey-multi-choice,204746.0,0.0-1.1-1.1,,17902,2505,"{""Q0"":""$-48 to $48"",""Q1"":""No, the cost is always $1.00."",""Q2"":""There is no limit"",""Q3"":""The better I perform the higher my bonus will be."",""Q4"":""No, the amount of cash at each node of the web may be different each time.""}","{'Q0': '$-48 to $48', 'Q1': 'No, the cost is always $1.00.', 'Q2': 'There is no limit', 'Q3': 'The better I perform the higher my bonus will be.', 'Q4': 'No, the amount of cash at each node of the web may be different each time.'}",,,,,,,,,,,,,,,,,
,survey-multi-choice,981644.0,0.0-3.0-3.0-0.0,,46674,2505,"{""Q0"":""No"",""Q1"":""No, the cost is always $1.00."",""Q2"":""There is no limit""}","{'Q0': 'No', 'Q1': 'No, the cost is always $1.00.', 'Q2': 'There is no limit'}",,,,,,,,,,,,,,,,,
,survey-multi-choice,1380913.0,0.0-3.0-5.0,,214999,2505,"{""Q0"":""$-4 to $4"",""Q1"":""$-8 to $8"",""Q2"":""$-48 to $48"",""Q3"":""No, the cost is always $1.00."",""Q4"":""Very motivated""}",,,,,,,,,,,,,,,,,,
,survey-multi-choice,172698.0,0.0-1.0-1.0,,70150,2422,"{""Q0"":""$-48 to $48"",""Q1"":""No, the cost is always $1.00."",""Q2"":""Three times"",""Q3"":""The better I perform the higher my bonus will be."",""Q4"":""No, the amount of cash at each node of the web may be different each time.""}","{'Q0': '$-48 to $48', 'Q1': 'No, the cost is always $1.00.', 'Q2': 'There is no limit', 'Q3': 'The better I perform the higher my bonus will be.', 'Q4': 'No, the amount of cash at each node of the web may be different each time.'}",,,,,,,,,,,,,,,,,
,survey-multi-choice,220446.0,0.0-1.1-1.1,,10339,2422,"{""Q0"":""$-48 to $48"",""Q1"":""No, the cost is always $1.00."",""Q2"":""There is no limit"",""Q3"":""The better I perform the higher my bonus will be."",""Q4"":""No, the amount of cash at each node of the web may be different each time.""}","{'Q0': '$-48 to $48', 'Q1': 'No, the cost is always $1.00.', 'Q2': 'There is no limit', 'Q3': 'The better I perform the higher my bonus will be.', 'Q4': 'No, the amount of cash at each node of the web may be different each time.'}",,,,,,,,,,,,,,,,,
,survey-multi-choice,1159276.0,0.0-3.0-3.0-0.0,,49353,2422,"{""Q0"":""No"",""Q1"":""No, the cost is always $1.00."",""Q2"":""There is no limit""}","{'Q0': 'No', 'Q1': 'No, the cost is always $1.00.', 'Q2': 'There is no limit'}",,,,,,,,,,,,,,,,,
,survey-multi-choice,1363544.0,0.0-3.0-5.0,,29204,2422,"{""Q0"":""$-4 to $4"",""Q1"":""$-8 to $8"",""Q2"":""$-48 to $48"",""Q3"":""No, the cost is always $1.00."",""Q4"":""Very motivated""}",,,,,,,,,,,,,,,,,,
,survey-multi-choice,121544.0,0.0-1.0-1.0,,20970,2415,"{""Q0"":""$-48 to $48"",""Q1"":""No, the cost is always $1.00."",""Q2"":""One time"",""Q3"":""The better I perform the higher my bonus will be."",""Q4"":""No, the amount of cash at each node of the web may be different each time.""}","{'Q0': '$-48 to $48', 'Q1': 'No, the cost is always $1.00.', 'Q2': 'There is no limit', 'Q3': 'The better I perform the higher my bonus will be.', 'Q4': 'No, the amount of cash at each node of the web may be different each time.'}",,,,,,,,,,,,,,,,,
,survey-multi-choice,159844.0,0.0-1.1-1.1,,13933,2415,"{""Q0"":""$-48 to $48"",""Q1"":""No, the cost is always $1.00."",""Q2"":""One time"",""Q3"":""The better I perform the higher my bonus will be."",""Q4"":""No, the structure of the web will be different each time.""}","{'Q0': '$-48 to $48', 'Q1': 'No, the cost is always $1.00.', 'Q2': 'There is no limit', 'Q3': 'The better I perform the higher my bonus will be.', 'Q4': 'No, the amount of cash at each node of the web may be different each time.'}",,,,,,,,,,,,,,,,,
,survey-multi-choice,226691.0,0.0-1.2-1.2,,10347,2415,"{""Q0"":""$-48 to $48"",""Q1"":""No, the cost is always $1.00."",""Q2"":""There is no limit"",""Q3"":""The better I perform the higher my bonus will be."",""Q4"":""No, the amount of cash at each node of the web may be different each time.""}","{'Q0': '$-48 to $48', 'Q1': 'No, the cost is always $1.00.', 'Q2': 'There is no limit', 'Q3': 'The better I perform the higher my bonus will be.', 'Q4': 'No, the amount of cash at each node of the web may be different each time.'}",,,,,,,,,,,,,,,,,
,survey-multi-choice,826630.0,0.0-3.0-3.0-0.0,,25198,2415,"{""Q0"":""No"",""Q1"":""No, the cost is always $1.00."",""Q2"":""There is no limit""}","{'Q0': 'No', 'Q1': 'No, the cost is always $1.00.', 'Q2': 'There is no limit'}",,,,,,,,,,,,,,,,,
,survey-multi-choice,1034766.0,0.0-3.0-5.0,,36255,2415,"{""Q0"":""$-4 to $4"",""Q1"":""$-8 to $8"",""Q2"":""$-48 to $48"",""Q3"":""No, the cost is always $1.00."",""Q4"":""Slightly motivated""}",,,,,,,,,,,,,,,,,,
,survey-multi-choice,91785.0,0.0-1.0-1.0,,29233,2394,"{""Q0"":""$-48 to $48"",""Q1"":""No, the cost is always $1.00."",""Q2"":""One time"",""Q3"":""The better I perform the higher my bonus will be."",""Q4"":""No, the amount of cash at each node of the web may be different each time.""}","{'Q0': '$-48 to $48', 'Q1': 'No, the cost is always $1.00.', 'Q2': 'There is no limit', 'Q3': 'The better I perform the higher my bonus will be.', 'Q4': 'No, the amount of cash at each node of the web may be different each time.'}",,,,,,,,,,,,,,,,,
,survey-multi-choice,220025.0,0.0-1.1-1.1,,18713,2394,"{""Q0"":""$-48 to $48"",""Q1"":""No, the cost is always $1.00."",""Q2"":""There is no limit"",""Q3"":""The better I perform the higher my bonus will be."",""Q4"":""No, the amount of cash at each node of the web may be different each time.""}","{'Q0': '$-48 to $48', 'Q1': 'No, the cost is always $1.00.', 'Q2': 'There is no limit', 'Q3': 'The better I perform the higher my bonus will be.', 'Q4': 'No, the amount of cash at each node of the web may be different each time.'}",,,,,,,,,,,,,,,,,
,survey-multi-choice,913676.0,0.0-3.0-3.0-0.0,,55643,2394,"{""Q0"":""No"",""Q1"":""No, the cost is always $1.00."",""Q2"":""There is no limit""}","{'Q0': 'No', 'Q1': 'No, the cost is always $1.00.', 'Q2': 'There is no limit'}",,,,,,,,,,,,,,,,,
,survey-multi-choice,1090124.0,0.0-3.0-5.0,,23367,2394,"{""Q0"":""$-48 to $48"",""Q1"":""$-4 to $4"",""Q2"":""$-8 to $8"",""Q3"":""No, the cost is always $1.00."",""Q4"":""Very motivated""}",,,,,,,,,,,,,,,,,,
,survey-multi-choice,153939.0,0.0-1.0-1.0,,56506,2756,"{""Q0"":""$-48 to $48"",""Q1"":""No, the cost is always $1.00."",""Q2"":""There is no limit"",""Q3"":""The better I perform the higher my bonus will be."",""Q4"":""No, the amount of cash at each node of the web may be different each time.""}","{'Q0': '$-48 to $48', 'Q1': 'No, the cost is always $1.00.', 'Q2': 'There is no limit', 'Q3': 'The better I perform the higher my bonus will be.', 'Q4': 'No, the amount of cash at each node of the web may be different each time.'}",,,,,,,,,,,,,,,,,
,survey-multi-choice,1569047.0,0.0-3.0-3.0-0.0,,31678,2756,"{""Q0"":""No"",""Q1"":""No, the cost is always $1.00."",""Q2"":""There is no limit""}","{'Q0': 'No', 'Q1': 'No, the cost is always $1.00.', 'Q2': 'There is no limit'}",,,,,,,,,,,,,,,,,
,survey-multi-choice,1915329.0,0.0-3.0-5.0,,111475,2756,"{""Q0"":""$-4 to $4"",""Q1"":""$-8 to $8"",""Q2"":""$-48 to $48"",""Q3"":""No, the cost is always $1.00."",""Q4"":""Very motivated""}",,,,,,,,,,,,,,,,,,
,survey-multi-choice,337696.0,0.0-1.0-1.0,,53464.0,2757,"{""Q0"":""$-48 to $48"",""Q1"":""No, the cost is always $1.00."",""Q2"":""There is no limit"",""Q3"":""The better I perform the higher my bonus will be."",""Q4"":""Yes.""}","{'Q0': '$-48 to $48', 'Q1': 'No, the cost is always $1.00.', 'Q2': 'There is no limit', 'Q3': 'The better I perform the higher my bonus will be.', 'Q4': 'No, the amount of cash at each node of the web may be different each time.'}",,,,,,,,,,,,,,,,,
,survey-multi-choice,608524.0,0.0-1.1-1.1,,137640.0,2757,"{""Q0"":""$-48 to $48"",""Q1"":""No, the cost is always $1.00."",""Q2"":""There is no limit"",""Q3"":""I will receive a $1 bonus if I perform well, otherwise I will receive no bonus."",""Q4"":""Yes.""}","{'Q0': '$-48 to $48', 'Q1': 'No, the cost is always $1.00.', 'Q2': 'There is no limit', 'Q3': 'The better I perform the higher my bonus will be.', 'Q4': 'No, the amount of cash at each node of the web may be different each time.'}",,,,,,,,,,,,,,,,,
,survey-multi-choice,729835.0,0.0-1.2-1.2,,100010.0,2757,"{""Q0"":""$-10 to $10"",""Q1"":""No, the cost is always $1.00."",""Q2"":""There is no limit"",""Q3"":""The better I perform the higher my bonus will be."",""Q4"":""No, the amount of cash at each node of the web may be different each time.""}","{'Q0': '$-48 to $48', 'Q1': 'No, the cost is always $1.00.', 'Q2': 'There is no limit', 'Q3': 'The better I perform the higher my bonus will be.', 'Q4': 'No, the amount of cash at each node of the web may be different each time.'}",,,,,,,,,,,,,,,,,
,survey-multi-choice,816568.0,0.0-1.3-1.3,,24388.0,2757,"{""Q0"":""$0 to $50"",""Q1"":""No, the cost is always $1.00."",""Q2"":""There is no limit"",""Q3"":""The better I perform the higher my bonus will be."",""Q4"":""No, the structure of the web will be different each time.""}","{'Q0': '$-48 to $48', 'Q1': 'No, the cost is always $1.00.', 'Q2': 'There is no limit', 'Q3': 'The better I perform the higher my bonus will be.', 'Q4': 'No, the amount of cash at each node of the web may be different each time.'}",,,,,,,,,,,,,,,,,
,survey-multi-choice,128992.0,0.0-1.0-1.0,,33177,2758,"{""Q0"":""$-48 to $48"",""Q1"":""No, the cost is always $1.00."",""Q2"":""There is no limit"",""Q3"":""The better I perform the higher my bonus will be."",""Q4"":""No, the amount of cash at each node of the web may be different each time.""}","{'Q0': '$-48 to $48', 'Q1': 'No, the cost is always $1.00.', 'Q2': 'There is no limit', 'Q3': 'The better I perform the higher my bonus will be.', 'Q4': 'No, the amount of cash at each node of the web may be different each time.'}",,,,,,,,,,,,,,,,,
,survey-multi-choice,1078927.0,0.0-3.0-3.0-0.0,,38878,2758,"{""Q0"":""No"",""Q1"":""No, the cost is always $1.00."",""Q2"":""There is no limit""}","{'Q0': 'No', 'Q1': 'No, the cost is always $1.00.', 'Q2': 'There is no limit'}",,,,,,,,,,,,,,,,,
,survey-multi-choice,1268696.0,0.0-3.0-5.0,,35101,2758,"{""Q0"":""$-4 to $4"",""Q1"":""$-8 to $8"",""Q2"":""$-48 to $48"",""Q3"":""No, the cost is always $1.00."",""Q4"":""Very motivated""}",,,,,,,,,,,,,,,,,,
,survey-multi-choice,91774.0,0.0-1.0-1.0,,22874,2759,"{""Q0"":""$-48 to $48"",""Q1"":""No, the cost is always $1.00."",""Q2"":""There is no limit"",""Q3"":""The better I perform the higher my bonus will be."",""Q4"":""No, the structure of the web will be different each time.""}","{'Q0': '$-48 to $48', 'Q1': 'No, the cost is always $1.00.', 'Q2': 'There is no limit', 'Q3': 'The better I perform the higher my bonus will be.', 'Q4': 'No, the amount of cash at each node of the web may be different each time.'}",,,,,,,,,,,,,,,,,
,survey-multi-choice,148557.0,0.0-1.1-1.1,,15281,2759,"{""Q0"":""$-48 to $48"",""Q1"":""No, the cost is always $1.00."",""Q2"":""There is no limit"",""Q3"":""The better I perform the higher my bonus will be."",""Q4"":""No, the amount of cash at each node of the web may be different each time.""}","{'Q0': '$-48 to $48', 'Q1': 'No, the cost is always $1.00.', 'Q2': 'There is no limit', 'Q3': 'The better I perform the higher my bonus will be.', 'Q4': 'No, the amount of cash at each node of the web may be different each time.'}",,,,,,,,,,,,,,,,,
,survey-multi-choice,1559708.0,0.0-3.0-3.0-0.0,,33798,2759,"{""Q0"":""No"",""Q1"":""No, the cost is always $1.00."",""Q2"":""There is no limit""}","{'Q0': 'No', 'Q1': 'No, the cost is always $1.00.', 'Q2': 'There is no limit'}",,,,,,,,,,,,,,,,,
,survey-multi-choice,1766241.0,0.0-3.0-5.0,,40075,2759,"{""Q0"":""$-48 to $48"",""Q1"":""$-48 to $48"",""Q2"":""$-48 to $48"",""Q3"":""No, the cost is always $1.00."",""Q4"":""Very motivated""}",,,,,,,,,,,,,,,,,,
,survey-multi-choice,302697.0,0.0-1.0-1.0,,61789,2630,"{""Q0"":""$-48 to $48"",""Q1"":""No, the cost is always $1.00."",""Q2"":""There is no limit"",""Q3"":""The better I perform the higher my bonus will be."",""Q4"":""No, the amount of cash at each node of the web may be different each time.""}","{'Q0': '$-48 to $48', 'Q1': 'No, the cost is always $1.00.', 'Q2': 'There is no limit', 'Q3': 'The better I perform the higher my bonus will be.', 'Q4': 'No, the amount of cash at each node of the web may be different each time.'}",,,,,,,,,,,,,,,,,
,survey-multi-choice,3479546.0,0.0-3.0-3.0-0.0,,53861,2630,"{""Q0"":""No"",""Q1"":""No, the cost is always $1.00."",""Q2"":""There is no limit""}","{'Q0': 'No', 'Q1': 'No, the cost is always $1.00.', 'Q2': 'There is no limit'}",,,,,,,,,,,,,,,,,
,survey-multi-choice,3942957.0,0.0-3.0-5.0,,56553,2630,"{""Q0"":""$-4 to $4"",""Q1"":""$-8 to $8"",""Q2"":""$-48 to $48"",""Q3"":""No, the cost is always $1.00."",""Q4"":""Very motivated""}",,,,,,,,,,,,,,,,,,
,survey-multi-choice,258277.0,0.0-1.0-1.0,,42214,2631,"{""Q0"":""$-48 to $48"",""Q1"":""No, the cost is always $1.00."",""Q2"":""There is no limit"",""Q3"":""The better I perform the higher my bonus will be."",""Q4"":""No, the amount of cash at each node of the web may be different each time.""}","{'Q0': '$-48 to $48', 'Q1': 'No, the cost is always $1.00.', 'Q2': 'There is no limit', 'Q3': 'The better I perform the higher my bonus will be.', 'Q4': 'No, the amount of cash at each node of the web may be different each time.'}",,,,,,,,,,,,,,,,,
,survey-multi-choice,1389465.0,0.0-3.0-3.0-0.0,,49586,2631,"{""Q0"":""No"",""Q1"":""No, the cost is always $1.00."",""Q2"":""There is no limit""}","{'Q0': 'No', 'Q1': 'No, the cost is always $1.00.', 'Q2': 'There is no limit'}",,,,,,,,,,,,,,,,,
,survey-multi-choice,1631995.0,0.0-3.0-5.0,,41707,2631,"{""Q0"":""$-4 to $4"",""Q1"":""$-8 to $8"",""Q2"":""$-48 to $48"",""Q3"":""No, the cost is always $1.00."",""Q4"":""Very motivated""}",,,,,,,,,,,,,,,,,,
,survey-multi-choice,211668.0,0.0-1.0-1.0,,41051,2597,"{""Q0"":""$-48 to $48"",""Q1"":""No, the cost is always $1.00."",""Q2"":""There is no limit"",""Q3"":""The better I perform the higher my bonus will be."",""Q4"":""No, the structure of the web will be different each time.""}","{'Q0': '$-48 to $48', 'Q1': 'No, the cost is always $1.00.', 'Q2': 'There is no limit', 'Q3': 'The better I perform the higher my bonus will be.', 'Q4': 'No, the amount of cash at each node of the web may be different each time.'}",,,,,,,,,,,,,,,,,
,survey-multi-choice,456455.0,0.0-1.1-1.1,,89851,2597,"{""Q0"":""$-48 to $48"",""Q1"":""There is no cost for clicking on nodes."",""Q2"":""There is no limit"",""Q3"":""The better I perform the higher my bonus will be."",""Q4"":""No, the amount of cash at each node of the web may be different each time.""}","{'Q0': '$-48 to $48', 'Q1': 'No, the cost is always $1.00.', 'Q2': 'There is no limit', 'Q3': 'The better I perform the higher my bonus will be.', 'Q4': 'No, the amount of cash at each node of the web may be different each time.'}",,,,,,,,,,,,,,,,,
,survey-multi-choice,599080.0,0.0-1.2-1.2,,21058,2597,"{""Q0"":""$-48 to $48"",""Q1"":""No, the cost is always $1.00."",""Q2"":""There is no limit"",""Q3"":""The better I perform the higher my bonus will be."",""Q4"":""No, the amount of cash at each node of the web may be different each time.""}","{'Q0': '$-48 to $48', 'Q1': 'No, the cost is always $1.00.', 'Q2': 'There is no limit', 'Q3': 'The better I perform the higher my bonus will be.', 'Q4': 'No, the amount of cash at each node of the web may be different each time.'}",,,,,,,,,,,,,,,,,
,survey-multi-choice,1319133.0,0.0-3.0-3.0-0.0,,78528,2597,"{""Q0"":""No"",""Q1"":""No, the cost is always $1.00."",""Q2"":""There is no limit""}","{'Q0': 'No', 'Q1': 'No, the cost is always $1.00.', 'Q2': 'There is no limit'}",,,,,,,,,,,,,,,,,
,survey-multi-choice,1607615.0,0.0-3.0-5.0,,68922,2597,"{""Q0"":""$-4 to $4"",""Q1"":""$-8 to $8"",""Q2"":""$-48 to $48"",""Q3"":""No, the cost is always $1.00."",""Q4"":""Very motivated""}",,,,,,,,,,,,,,,,,,
,survey-multi-choice,141150.0,0.0-1.0-1.0,,24810,2584,"{""Q0"":""$-48 to $48"",""Q1"":""No, the cost is always $1.00."",""Q2"":""There is no limit"",""Q3"":""The better I perform the higher my bonus will be."",""Q4"":""No, the amount of cash at each node of the web may be different each time.""}","{'Q0': '$-48 to $48', 'Q1': 'No, the cost is always $1.00.', 'Q2': 'There is no limit', 'Q3': 'The better I perform the higher my bonus will be.', 'Q4': 'No, the amount of cash at each node of the web may be different each time.'}",,,,,,,,,,,,,,,,,
,survey-multi-choice,1760796.0,0.0-3.0-3.0-0.0,,30782,2584,"{""Q0"":""No"",""Q1"":""No, the cost is always $1.00."",""Q2"":""There is no limit""}","{'Q0': 'No', 'Q1': 'No, the cost is always $1.00.', 'Q2': 'There is no limit'}",,,,,,,,,,,,,,,,,
,survey-multi-choice,1987503.0,0.0-3.0-5.0,,41948,2584,"{""Q0"":""$-4 to $4"",""Q1"":""$-8 to $8"",""Q2"":""$-48 to $48"",""Q3"":""No, the cost is always $1.00."",""Q4"":""Slightly motivated""}",,,,,,,,,,,,,,,,,,
,survey-multi-choice,708331.0,0.0-1.0-1.0,,176334,2514,"{""Q0"":""$-48 to $48"",""Q1"":""No, the cost is always $1.00."",""Q2"":""There is no limit"",""Q3"":""The better I perform the higher my bonus will be."",""Q4"":""No, the amount of cash at each node of the web may be different each time.""}","{'Q0': '$-48 to $48', 'Q1': 'No, the cost is always $1.00.', 'Q2': 'There is no limit', 'Q3': 'The better I perform the higher my bonus will be.', 'Q4': 'No, the amount of cash at each node of the web may be different each time.'}",,,,,,,,,,,,,,,,,
,survey-multi-choice,1402428.0,0.0-3.0-3.0-0.0,,39084,2514,"{""Q0"":""No"",""Q1"":""No, the cost is always $1.00."",""Q2"":""There is no limit""}","{'Q0': 'No', 'Q1': 'No, the cost is always $1.00.', 'Q2': 'There is no limit'}",,,,,,,,,,,,,,,,,
