pid,trial_index,action_time,actions,block,path,queries,reward,rt,condition,bonus,score,simulation_mode,state_rewards,time_elapsed,trialTime,trial_type
0,0,"[23715, 26995, 32700]","['up', 'up', 'right']",training,"['0', '1', '2', '3']","{'click': {'state': {'target': ['1', '5', '9'], 'time': [6942, 13756, 18364]}, 'edge': {'target': [], 'time': []}}, 'mouseover': {'state': {'target': ['8', '5', '1', '1', '0', '0', '5', '0', '0', '9', '0', '8'], 'time': [2561, 5924, 6007, 6191, 12585, 13271, 13451, 15515, 16215, 16282, 20645, 20695]}, 'edge': {'target': [], 'time': []}}, 'mouseout': {'state': {'target': ['8', '5', '1', '1', '0', '0', '5', '0', '0', '9', '0', '8'], 'time': [5857, 5957, 6057, 12337, 12602, 13302, 15367, 15549, 16232, 20629, 20661, 20712]}, 'edge': {'target': [], 'time': []}}}","[24, 4, -2]","[213018.59499999956, 18325.940000000614, 23714.425000000134]",1,0,23,"[None, None, None]","['', 24, 4, -2, 4, -24, -8, -2, -4, -24, 8, -4, -2]",213020,[],mouselab-mdp
0,1,"[17136, 18967, 20472]","['up', 'up', 'left']",training,"['0', '1', '2', '4']","{'click': {'state': {'target': ['9', '5', '7', '8', '4'], 'time': [4504, 7135, 10136, 11359, 14584]}, 'edge': {'target': [], 'time': []}}, 'mouseover': {'state': {'target': ['1', '0', '9', '9', '0', '5', '5', '0', '5', '7', '6', '8', '6', '1', '2', '4', '1', '0', '0', '1'], 'time': [2498, 2766, 3015, 3398, 5179, 5379, 6179, 6295, 6995, 9742, 10858, 11026, 12723, 13356, 14072, 14322, 15071, 15787, 15921, 16071]}, 'edge': {'target': [], 'time': []}}, 'mouseout': {'state': {'target': ['1', '0', '9', '9', '0', '5', '5', '0', '5', '7', '6', '8', '6', '1', '2', '4', '1', '5', '8', '0', '0', '1'], 'time': [2615, 2848, 3151, 5163, 5213, 5599, 6249, 6961, 9243, 10808, 10925, 12257, 13073, 13890, 14189, 15038, 15088, 15121, 15488, 15854, 15937, 16248]}, 'edge': {'target': [], 'time': []}}}","[-48, -8, 2]","[2768.6849999990955, 5193.525000000576, 17134.569999998377]",1,1.68,-59,"[None, None, None]","['', -48, -8, 4, 2, 24, 8, -2, -2, -24, 4, 4, 4]",231349,[],mouselab-mdp
0,2,"[27143, 28062, 28710]","['up', 'up', 'left']",training,"['0', '1', '2', '4']","{'click': {'state': {'target': ['5', '9', '10', '12', '1', '2', '4'], 'time': [3144, 4231, 5271, 6183, 10743, 11999, 12751]}, 'edge': {'target': [], 'time': []}}, 'mouseover': {'state': {'target': ['6', '5', '0', '9', '10', '12', '11', '1', '2', '4', '7'], 'time': [1920, 2636, 3818, 3985, 5034, 5966, 7115, 9880, 11445, 12511, 13310]}, 'edge': {'target': [], 'time': []}}, 'mouseout': {'state': {'target': ['6', '5', '5', '0', '9', '10', '12', '10', '11', '5', '1', '2', '4', '7'], 'time': [2552, 3535, 3801, 3835, 4784, 5816, 6849, 6999, 7267, 9697, 11396, 12478, 13077, 13345]}, 'edge': {'target': [], 'time': []}}}","[48, -4, 2]","[1312.565000000177, 1002.4749999993364, 27142.099999999104]",1,[],39,"[None, None, None]","['', 48, -4, 4, 2, -48, -8, 4, 2, 24, 8, -2, 2]",266732,[],mouselab-mdp
0,3,"[11368, 12151, 12918]","['up', 'up', 'right']",training,"['0', '1', '2', '3']","{'click': {'state': {'target': ['9', '5', '6', '7', '8', '1', '2', '3', '4'], 'time': [2584, 3263, 4168, 4824, 5439, 6543, 7199, 8000, 8847]}, 'edge': {'target': [], 'time': []}}, 'mouseover': {'state': {'target': ['6', '5', '0', '9', '5', '6', '7', '8', '1', '2', '3', '4', '4', '0', '0'], 'time': [1912, 2112, 2179, 2295, 3011, 3844, 4627, 5226, 5959, 6975, 7831, 8308, 8707, 9273, 9325]}, 'edge': {'target': [], 'time': []}}, 'mouseout': {'state': {'target': ['6', '5', '0', '9', '5', '6', '7', '6', '8', '5', '1', '2', '3', '2', '4', '4', '0', '0'], 'time': [2079, 2162, 2212, 2912, 3528, 4595, 5143, 5195, 5826, 5876, 6925, 7641, 8241, 8307, 8357, 9123, 9290, 9356]}, 'edge': {'target': [], 'time': []}}}","[24, 4, 4]","[413.00000000046566, 145.2799999988638, 11366.304999999586]",1,[],23,"[None, None, None]","['', 24, 4, 4, 4, 24, -4, -2, -2, -24, 8, -2, -4]",291115,[],mouselab-mdp
0,4,"[15832, 16728, 17392]","['right', 'right', 'up']",training,"['0', '5', '6', '7']","{'click': {'state': {'target': ['9', '5', '6', '7', '10', '1', '2', '3', '4', '8'], 'time': [3321, 4024, 4889, 5392, 6952, 8032, 8984, 9720, 10449, 14602]}, 'edge': {'target': [], 'time': []}}, 'mouseover': {'state': {'target': ['0', '0', '5', '0', '9', '0', '5', '6', '7', '1', '10', '11', '1', '2', '3', '4', '0', '0', '0', '8'], 'time': [1928, 2428, 2694, 2961, 3160, 3693, 3860, 4626, 5242, 5775, 6741, 7307, 7740, 8489, 9522, 10221, 11021, 11254, 12453, 14335]}, 'edge': {'target': [], 'time': []}}, 'mouseout': {'state': {'target': ['0', '0', '5', '0', '9', '0', '5', '6', '7', '1', '10', '11', '1', '2', '3', '2', '4', '1', '0', '0', '5', '9', '0', '5', '6', '8'], 'time': [2062, 2445, 2768, 2977, 3665, 3743, 4593, 5209, 5625, 6574, 7257, 7657, 8439, 9505, 9988, 10173, 10671, 10904, 11204, 11271, 12005, 12420, 12519, 12686, 14185, 14934]}, 'edge': {'target': [], 'time': []}}}","[24, -4, 2]","[278.8049999999348, 263.6050000000978, 15830.954999999434]",1,[],12,"[None, None, None]","['', -24, -4, 4, -2, 24, -4, 2, -4, -48, -4, 4, -4]",329908,[],mouselab-mdp
0,5,"[10784, 11472, 14384]","['left', 'left', 'down']",training,"['0', '9', '10', '12']","{'click': {'state': {'target': ['9', '10', '12', '5', '1', '2', '4'], 'time': [2201, 2928, 3497, 5864, 7128, 7912, 8632]}, 'edge': {'target': [], 'time': []}}, 'mouseover': {'state': {'target': ['8', '5', '2', '4', '1', '9', '10', '12', '5', '1', '2', '4', '3', '6', '8'], 'time': [1296, 1328, 1378, 1445, 1613, 2011, 2760, 3327, 5559, 6940, 7706, 8441, 9290, 9689, 9739]}, 'edge': {'target': [], 'time': []}}, 'mouseout': {'state': {'target': ['8', '5', '2', '4', '1', '9', '10', '12', '5', '1', '2', '4', '3', '6', '8', '6'], 'time': [1312, 1345, 1428, 1495, 1694, 2644, 3293, 3710, 6757, 7673, 8306, 8922, 9590, 9705, 13253, 13486]}, 'edge': {'target': [], 'time': []}}}","[24, 4, 4]","[393.5600000004051, 158.3499999997439, 10782.680000000284]",1,[],25,"[None, None, None]","['', -24, 4, 2, -2, -24, -8, -4, 4, 24, 4, 2, 4]",435916,[],mouselab-mdp
0,6,"[42804, 43556, 45491]","['left', 'left', 'up']",training,"['0', '9', '10', '11']","{'click': {'state': {'target': ['5', '9', '10', '12', '1'], 'time': [38380, 39013, 39716, 40180, 41692]}, 'edge': {'target': [], 'time': []}}, 'mouseover': {'state': {'target': ['5', '6', '5', '0', '9', '10', '12', '0', '1'], 'time': [1081, 37932, 38049, 38732, 38815, 39531, 40031, 40813, 41313]}, 'edge': {'target': [], 'time': []}}, 'mouseout': {'state': {'target': ['5', '6', '5', '0', '9', '10', '12', '0', '1'], 'time': [1214, 37982, 38732, 38768, 39498, 39964, 40614, 40863, 42097]}, 'edge': {'target': [], 'time': []}}}","[48, 8, -2]","[184.20999999943888, 2396.7400000001653, 42804.384999999485]",1,[],49,"[None, None, None]","['', -48, 4, 2, -4, -48, 8, -4, -4, 48, 8, -2, -2]",455291,[],mouselab-mdp
0,7,"[17296, 17998, 19166]","['left', 'left', 'down']",training,"['0', '9', '10', '12']","{'click': {'state': {'target': ['5', '1', '9', '10', '11', '12', '2', '4', '3', '7', '6', '8'], 'time': [1807, 2855, 3607, 5511, 6351, 6984, 8815, 9671, 10271, 10863, 11239, 11671]}, 'edge': {'target': [], 'time': []}}, 'mouseover': {'state': {'target': ['7', '5', '0', '0', '1', '9', '10', '11', '12', '0', '2', '4', '3', '7', '6', '8'], 'time': [1240, 1357, 2373, 2473, 2556, 3339, 5220, 6170, 6736, 8451, 8584, 9550, 10116, 10583, 11082, 11449]}, 'edge': {'target': [], 'time': []}}, 'mouseout': {'state': {'target': ['7', '5', '0', '0', '1', '9', '10', '11', '10', '12', '0', '1', '2', '4', '2', '3', '7', '6', '8'], 'time': [1257, 2339, 2390, 2489, 3306, 4887, 6103, 6670, 6719, 7369, 8468, 8551, 9384, 9867, 9983, 10533, 11050, 11415, 11883]}, 'edge': {'target': [], 'time': []}}}","[-48, 8, 4]","[243.74000000173692, 1429.6049999993993, 17294.32000000088]",1,[],-48,"[None, None, None]","['', -48, -8, 4, -2, -48, 8, -4, -4, -48, 8, -2, 4]",471939,[],mouselab-mdp
0,8,"[4685, 5389, 6485]","['left', 'left', 'down']",training,"['0', '9', '10', '12']","{'click': {'state': {'target': ['1', '9', '10', '12'], 'time': [1926, 2839, 3590, 4070]}, 'edge': {'target': [], 'time': []}}, 'mouseover': {'state': {'target': ['7', '1', '9', '10', '12'], 'time': [1567, 1784, 2683, 3466, 3916]}, 'edge': {'target': [], 'time': []}}, 'mouseout': {'state': {'target': ['7', '1', '9', '10', '12'], 'time': [1584, 2452, 3333, 3867, 4249]}, 'edge': {'target': [], 'time': []}}}","[24, 8, 4]","[186.8350000004284, 655.9150000012014, 4684.134999999544]",1,[],32,"[None, None, None]","['', -48, -4, -2, 4, -24, -4, 4, 4, 24, 8, -2, 4]",519673,[],mouselab-mdp
0,9,"[44197, 44917, 45484]","['right', 'right', 'down']",training,"['0', '5', '6', '8']","{'click': {'state': {'target': ['5', '6', '8', '7'], 'time': [40982, 42045, 42645, 43301]}, 'edge': {'target': [], 'time': []}}, 'mouseover': {'state': {'target': ['8', '6', '5', '0', '0', '6', '8', '7'], 'time': [40210, 40279, 40495, 41259, 41592, 41776, 42442, 42991]}, 'edge': {'target': [], 'time': []}}, 'mouseout': {'state': {'target': ['8', '6', '5', '0', '0', '5', '6', '8', '6', '7'], 'time': [40227, 40345, 41226, 41293, 41609, 41642, 42375, 42842, 42941, 43457]}, 'edge': {'target': [], 'time': []}}}","[48, -4, 2]","[190.3649999985937, 586.8549999995157, 44196.71999999997]",1,[],42,"[None, None, None]","['', 24, -8, -4, -2, 48, -4, -4, 2, -48, -8, -4, -4]",543625,[],mouselab-mdp
0,10,"[8178, 9394, 10498]","['left', 'left', 'down']",training,"['0', '9', '10', '12']","{'click': {'state': {'target': ['1', '5', '9', '10', '12', '11'], 'time': [1963, 2978, 3947, 4586, 5123, 5651]}, 'edge': {'target': [], 'time': []}}, 'mouseover': {'state': {'target': ['0', '9', '0', '1', '5', '9', '9', '10', '12', '11', '6'], 'time': [946, 1029, 1446, 1779, 2628, 3344, 3811, 4393, 4926, 5443, 6475]}, 'edge': {'target': [], 'time': []}}, 'mouseout': {'state': {'target': ['0', '9', '0', '1', '5', '9', '9', '9', '10', '12', '10', '11', '5', '6', '5', '1', '1'], 'time': [963, 1413, 1546, 2562, 3294, 3394, 4211, 4360, 4793, 5276, 5443, 5876, 6459, 6908, 6975, 7125, 7308]}, 'edge': {'target': [], 'time': []}}}","[24, -4, -2]","[209.2199999988079, 60.39000000047963, 8176.980000000214]",1,[],12,"[None, None, None]","['', -48, 4, -2, -4, -48, 4, -2, 4, 24, -4, -2, -2]",552610,[],mouselab-mdp
0,11,"[7394, 8186, 8842]","['up', 'up', 'left']",training,"['0', '1', '2', '4']","{'click': {'state': {'target': ['1', '2', '3', '4'], 'time': [4323, 5235, 5899, 6484]}, 'edge': {'target': [], 'time': []}}, 'mouseover': {'state': {'target': ['8', '5', '0', '1', '9', '0', '1', '2', '3', '4', '7'], 'time': [2686, 2753, 2786, 2836, 3202, 3618, 4068, 4834, 5683, 6316, 6716]}, 'edge': {'target': [], 'time': []}}, 'mouseout': {'state': {'target': ['8', '5', '0', '1', '9', '0', '1', '1', '2', '3', '2', '4', '7', '0', '0'], 'time': [2737, 2769, 2803, 2902, 3519, 3668, 4668, 4801, 5650, 6266, 6283, 6666, 6733, 138258, 138423]}, 'edge': {'target': [], 'time': []}}}","[48, -4, 2]","[703.1950000000652, 591.6249999991851, 7392.830000000657]",1,[],42,"[None, None, None]","['', 48, -4, -4, 2, 24, 4, -2, -4, 48, -4, -4, 4]",599880,[],mouselab-mdp
0,12,"[8778, 9425, 9946]","['right', 'right', 'up']",training,"['0', '5', '6', '7']","{'click': {'state': {'target': ['5', '6', '7'], 'time': [3611, 5922, 7586]}, 'edge': {'target': [], 'time': []}}, 'mouseover': {'state': {'target': ['0', '5', '0', '9', '0', '5', '6', '5', '0', '0', '9', '0', '6', '7'], 'time': [987, 1021, 1970, 2669, 3003, 3019, 3068, 3152, 3968, 4301, 4734, 5383, 5733, 7015]}, 'edge': {'target': [], 'time': []}}, 'mouseout': {'state': {'target': ['0', '5', '0', '9', '0', '5', '6', '5', '0', '0', '9', '0', '5', '6', '7', '6'], 'time': [1005, 1953, 2003, 2968, 3018, 3052, 3102, 3936, 4034, 4501, 5350, 5400, 5566, 6915, 8014, 8131]}, 'edge': {'target': [], 'time': []}}}","[24, 8, 4]","[287.1599999999162, 143.5300000011921, 8776.50999999966]",1,[],33,"[None, None, None]","['', -48, 4, -4, 2, 24, 8, 4, -4, -24, 4, 4, -2]",611697,[],mouselab-mdp
0,13,"[6788, 7404, 7963]","['left', 'left', 'down']",training,"['0', '9', '10', '12']","{'click': {'state': {'target': ['1', '9', '10', '11', '12', '5'], 'time': [2052, 2716, 3260, 3949, 4476, 5900]}, 'edge': {'target': [], 'time': []}}, 'mouseover': {'state': {'target': ['6', '7', '1', '0', '1', '9', '10', '11', '12', '5', '6'], 'time': [676, 726, 826, 1825, 1908, 2524, 3074, 3757, 4290, 5805, 6171]}, 'edge': {'target': [], 'time': []}}, 'mouseout': {'state': {'target': ['6', '7', '1', '0', '1', '9', '10', '11', '10', '12', '5', '6'], 'time': [693, 743, 842, 1858, 2458, 3041, 3707, 4140, 4240, 5492, 6071, 6188]}, 'edge': {'target': [], 'time': []}}}","[24, -4, 4]","[144.15999999979977, 14.989999999757856, 6786.129999998608]",1,[],18,"[None, None, None]","['', -48, 8, -2, 4, -24, -4, 2, -2, 24, -4, -4, 4]",750806,[],mouselab-mdp
0,14,"[243871, 244648, 245256]","['right', 'right', 'up']",training,"['0', '5', '6', '7']","{'click': {'state': {'target': ['1', '9', '5', '6', '8', '7'], 'time': [238649, 239312, 239890, 240552, 241689, 242265]}, 'edge': {'target': [], 'time': []}}, 'mouseover': {'state': {'target': ['0', '1', '9', '0', '5', '6', '7', '8', '7'], 'time': [238167, 238399, 239099, 239682, 239715, 240331, 240914, 241347, 242080]}, 'edge': {'target': [], 'time': []}}, 'mouseout': {'state': {'target': ['0', '1', '9', '0', '5', '6', '7', '6', '8', '6', '7', '6'], 'time': [238316, 239016, 239665, 239698, 240214, 240864, 241282, 241330, 242013, 242046, 242463, 246326]}, 'edge': {'target': [], 'time': []}}}","[24, 8, -2]","[99.20000000053551, 42.53500000049826, 243872.20499999973]",1,[],24,"[None, None, None]","['', -48, 8, 4, 2, 24, 8, -2, -4, -24, 4, 4, 2]",761917,[],mouselab-mdp
0,15,"[6931, 7442, 8059]","['up', 'up', 'left']",training,"['0', '1', '2', '4']","{'click': {'state': {'target': ['1', '2', '4', '3'], 'time': [1803, 2555, 3235, 4091]}, 'edge': {'target': [], 'time': []}}, 'mouseover': {'state': {'target': ['8', '5', '1', '1', '2', '4', '3', '3', '6', '7'], 'time': [1107, 1173, 1256, 1523, 2405, 3071, 3538, 3804, 6302, 6502]}, 'edge': {'target': [], 'time': []}}, 'mouseout': {'state': {'target': ['8', '5', '1', '1', '2', '4', '2', '3', '3', '6', '7', '6', '8'], 'time': [1123, 1190, 1372, 2372, 3040, 3491, 3538, 3554, 4770, 6385, 8883, 8933, 9150]}, 'edge': {'target': [], 'time': []}}}","[24, 8, -2]","[269.77500000060536, 93.59499999845866, 6929.439999999828]",1,[],26,"[None, None, None]","['', 24, 8, -4, -2, 48, 4, 2, -4, 48, 4, 2, -2]",771206,[],mouselab-mdp
0,16,"[6920, 7768, 8976]","['left', 'left', 'down']",training,"['0', '9', '10', '12']","{'click': {'state': {'target': ['5', '9', '10', '12', '11'], 'time': [1449, 2049, 2729, 5121, 5929]}, 'edge': {'target': [], 'time': []}}, 'mouseover': {'state': {'target': ['0', '5', '0', '9', '10', '12', '11', '6'], 'time': [1178, 1295, 1844, 1878, 2527, 3609, 5824, 6175]}, 'edge': {'target': [], 'time': []}}, 'mouseout': {'state': {'target': ['0', '5', '0', '9', '10', '12', '10', '11', '5', '6'], 'time': [1195, 1817, 1861, 2494, 3526, 5558, 5741, 6107, 6174, 6191]}, 'edge': {'target': [], 'time': []}}}","[48, 8, -2]","[6.954999998910353, 90.60999999928754, 6919.429999999935]",1,[],49,"[None, None, None]","['', 24, 4, -2, -2, -24, -4, 2, -4, 48, 8, -2, -2]",1018484,[],mouselab-mdp
0,17,"[7417, 8008, 8528]","['left', 'left', 'down']",training,"['0', '9', '10', '12']","{'click': {'state': {'target': ['1', '9', '10', '11', '12'], 'time': [1185, 2410, 5073, 5937, 6545]}, 'edge': {'target': [], 'time': []}}, 'mouseover': {'state': {'target': ['6', '7', '1', '2', '9', '5', '0', '4', '10', '11', '12'], 'time': [741, 822, 1022, 1621, 2187, 2687, 3187, 3505, 4353, 5685, 6334]}, 'edge': {'target': [], 'time': []}}, 'mouseout': {'state': {'target': ['6', '7', '1', '2', '1', '9', '5', '0', '1', '4', '10', '11', '10', '12'], 'time': [789, 938, 1605, 2072, 2105, 2637, 3103, 3220, 3403, 4053, 5551, 6249, 6301, 6769]}, 'edge': {'target': [], 'time': []}}}","[48, 4, -2]","[344.03999999992084, 702.7049999997253, 7415.490000001271]",1,[],45,"[None, None, None]","['', 24, 8, 2, 4, 24, 8, -2, -4, 48, 4, -4, -2]",1028260,[],mouselab-mdp
0,18,"[5474, 6208, 7104]","['right', 'right', 'down']",training,"['0', '5', '6', '8']","{'click': {'state': {'target': ['9', '1', '5', '6', '7', '8'], 'time': [1394, 1873, 2353, 3585, 4153, 4729]}, 'edge': {'target': [], 'time': []}}, 'mouseover': {'state': {'target': ['0', '1', '1', '9', '1', '5', '6', '7', '8'], 'time': [810, 843, 977, 1259, 1710, 2158, 3307, 3973, 4625]}, 'edge': {'target': [], 'time': []}}, 'mouseout': {'state': {'target': ['0', '1', '1', '9', '1', '5', '6', '7', '6'], 'time': [826, 909, 1009, 1625, 2125, 3273, 3924, 4323, 4423]}, 'edge': {'target': [], 'time': []}}}","[-24, 4, -2]","[74.04999999911524, 11.590000000083819, 5472.664999999339]",1,[],-28,"[None, None, None]","['', -48, 4, 4, -2, -24, 4, -2, -2, -48, -4, 4, -4]",1038707,[],mouselab-mdp
0,19,"[5376, 5960, 7456]","['up', 'up', 'left']",training,"['0', '1', '2', '4']","{'click': {'state': {'target': ['1', '9', '5', '2', '4', '3'], 'time': [1313, 2097, 2657, 3417, 4065, 4601]}, 'edge': {'target': [], 'time': []}}, 'mouseover': {'state': {'target': ['8', '6', '1', '9', '0', '5', '2', '4', '3', '7'], 'time': [None, 870, 1120, 1686, 2452, 2486, 3220, 3951, 4385, 4900]}, 'edge': {'target': [], 'time': []}}, 'mouseout': {'state': {'target': ['8', '6', '1', '9', '0', '5', '1', '2', '4', '2', '3', '7', '5'], 'time': [821, 887, 1553, 2436, 2469, 2968, 3118, 3785, 4252, 4351, 4817, 8264, 8630]}, 'edge': {'target': [], 'time': []}}}","[24, -8, 2]","[219.12999999942258, 381.9349999993574, 5375.475000000792]",1,[],12,"[None, None, None]","['', 24, -8, -2, 2, -24, 8, 4, 2, -24, -4, -2, 2]",1048395,[],mouselab-mdp
0,20,"[13010, 14658, 15651]","['right', 'right', 'down']",training,"['0', '5', '6', '8']","{'click': {'state': {'target': ['9', '5', '1', '7', '8', '6'], 'time': [6195, 7483, 8315, 10643, 11428, 12139]}, 'edge': {'target': [], 'time': []}}, 'mouseover': {'state': {'target': ['4', '9', '0', '0', '5', '5', '1', '7', '6', '8', '8', '6'], 'time': [5574, 5874, 6822, 7072, 7090, 7355, 7989, 10105, 11002, 11036, 11252, 11785]}, 'edge': {'target': [], 'time': []}}, 'mouseout': {'state': {'target': ['4', '9', '0', '9', '0', '5', '5', '5', '1', '7', '6', '8', '8', '6'], 'time': [5690, 6556, 6840, 7056, 7089, 7239, 7706, 7888, 9620, 10969, 11036, 11086, 11753, 12335]}, 'edge': {'target': [], 'time': []}}}","[48, -4, -2]","[76.20499999937601, 989.5150000010617, 13008.65999999945]",1,[],36,"[None, None, None]","['', 24, -8, 2, -2, 48, -4, -4, -2, 24, -4, 4, -4]",1056827,[],mouselab-mdp
0,21,"[11930, 12464, 12992]","['up', 'up', 'right']",training,"['0', '1', '2', '3']","{'click': {'state': {'target': ['1', '9', '5', '2', '4', '3', '6', '7', '8', '10', '12', '11'], 'time': [2321, 2889, 3761, 5345, 6025, 6491, 8128, 8609, 9177, 10057, 10521, 10993]}, 'edge': {'target': [], 'time': []}}, 'mouseover': {'state': {'target': ['1', '9', '5', '2', '4', '3', '6', '7', '8', '10', '12', '11'], 'time': [2121, 2753, 3641, 4618, 5801, 6317, 7849, 8449, 8998, 9947, 10414, 10847]}, 'edge': {'target': [], 'time': []}}, 'mouseout': {'state': {'target': ['1', '9', '5', '5', '1', '2', '4', '2', '3', '6', '7', '6', '8', '10', '12', '10', '11'], 'time': [2587, 3086, 4002, 4385, 4535, 5686, 6250, 6301, 6667, 8365, 8782, 8848, 9415, 10231, 10680, 10747, 11130]}, 'edge': {'target': [], 'time': []}}}","[48, 4, -2]","[1140.2049999996088, 483.89499999932013, 11928.594999999506]",1,[],38,"[None, None, None]","['', 48, 4, -2, -2, -48, -8, 2, -2, 24, 8, -2, -4]",1067563,[],mouselab-mdp
0,22,"[6913, 7720, 8672]","['right', 'right', 'down']",training,"['0', '5', '6', '8']","{'click': {'state': {'target': ['1', '9', '5', '6'], 'time': [3201, 3913, 4776, 5585]}, 'edge': {'target': [], 'time': []}}, 'mouseover': {'state': {'target': ['1', '4', '1', '0', '0', '9', '0', '5', '6', '8'], 'time': [2549, 2799, 3000, 3565, 3632, 3864, 4148, 4680, 5330, 5996]}, 'edge': {'target': [], 'time': []}}, 'mouseout': {'state': {'target': ['1', '4', '1', '0', '0', '9', '0', '5', '6', '8'], 'time': [2566, 2832, 3465, 3598, 3665, 4098, 4198, 5197, 5913, 10112]}, 'edge': {'target': [], 'time': []}}}","[24, 4, -2]","[17.43499999982305, 12.925000000977889, 6912.104999999283]",1,[],22,"[None, None, None]","['', -48, 8, -2, -4, 24, 4, -2, -2, -24, 8, -4, 2]",1084603,[],mouselab-mdp
0,23,"[11817, 12441, 12985]","['up', 'up', 'right']",training,"['0', '1', '2', '3']","{'click': {'state': {'target': ['5', '1', '9', '6', '10', '2', '4', '3'], 'time': [2042, 2898, 3466, 7234, 8186, 8946, 9754, 10706]}, 'edge': {'target': [], 'time': []}}, 'mouseover': {'state': {'target': ['5', '9', '1', '9', '0', '2', '7', '6', '0', '10', '2', '4', '3', '3'], 'time': [1835, 2501, 2669, 3201, 3634, 6248, 6765, 7097, 7630, 8146, 8696, 9429, 10062, 10630]}, 'edge': {'target': [], 'time': []}}, 'mouseout': {'state': {'target': ['5', '5', '9', '1', '9', '0', '5', '5', '1', '2', '7', '6', '5', '0', '9', '10', '2', '1', '4', '3', '3'], 'time': [2185, 2435, 2551, 3102, 3617, 3650, 5882, 5965, 6198, 6731, 6781, 7597, 7614, 7647, 7697, 8515, 9229, 9362, 9995, 10195, 11013]}, 'edge': {'target': [], 'time': []}}}","[24, 4, -4]","[290.6050000002142, 443.32500000018626, 11815.614999999525]",1,[],16,"[None, None, None]","['', 24, 4, -4, -4, 24, -4, -2, 4, 24, -8, -4, 2]",1099179,[],mouselab-mdp
0,24,"[7861, 8581, 9469]","['right', 'right', 'down']",training,"['0', '5', '6', '8']","{'click': {'state': {'target': ['1', '9', '5', '6', '8', '7', '2', '4', '3'], 'time': [1566, 2110, 2566, 3358, 3895, 4446, 5782, 6174, 6630]}, 'edge': {'target': [], 'time': []}}, 'mouseover': {'state': {'target': ['7', '1', '9', '0', '5', '6', '8', '7', '3', '2', '4', '3'], 'time': [1087, 1404, 1920, 2320, 2453, 3169, 3752, 4318, 5151, 5367, 5983, 6499]}, 'edge': {'target': [], 'time': []}}, 'mouseout': {'state': {'target': ['7', '1', '9', '0', '5', '6', '8', '6', '7', '3', '2', '4', '2', '3', '3'], 'time': [1104, 1886, 2286, 2369, 3152, 3735, 4085, 4168, 4551, 5167, 5950, 6316, 6366, 6816, 10263]}, 'edge': {'target': [], 'time': []}}}","[48, -8, -2]","[113.91999999969266, 41.1350000014063, 7859.870000000345]",1,[],29,"[None, None, None]","['', 24, -8, 2, 4, 48, -8, -2, -2, -24, -4, 2, 4]",1110019,[],mouselab-mdp
0,25,"[7115, 7811, 8363]","['left', 'left', 'down']",training,"['0', '9', '10', '12']","{'click': {'state': {'target': ['1', '9', '5', '10', '12', '11'], 'time': [924, 1396, 1884, 3052, 3556, 4108]}, 'edge': {'target': [], 'time': []}}, 'mouseover': {'state': {'target': ['1', '9', '0', '5', '0', '10', '12', '11'], 'time': [725, 1243, 1591, 1691, 2640, 2923, 3474, 3991]}, 'edge': {'target': [], 'time': []}}, 'mouseout': {'state': {'target': ['1', '9', '0', '5', '0', '9', '10', '12', '10', '11'], 'time': [1176, 1541, 1608, 2624, 2657, 2674, 3324, 3690, 3773, 4306]}, 'edge': {'target': [], 'time': []}}}","[48, -4, -2]","[215.45499999960884, 370.63500000117347, 7113.515000000829]",1,[],36,"[None, None, None]","['', -24, 4, -4, 2, 24, 4, 2, 4, 48, -4, -2, -2]",1124636,[],mouselab-mdp
0,26,"[11397, 12053, 13750]","['right', 'right', 'down']",training,"['0', '5', '6', '8']","{'click': {'state': {'target': ['1', '9', '5', '6', '2', '3', '4', '7', '8'], 'time': [1134, 1862, 2351, 6150, 6902, 8182, 8830, 9590, 10142]}, 'edge': {'target': [], 'time': []}}, 'mouseover': {'state': {'target': ['1', '0', '9', '0', '5', '6', '2', '6', '2', '3', '4', '7', '8'], 'time': [1055, 1405, 1738, 2054, 2138, 2854, 5152, 6034, 6750, 7950, 8716, 9398, 9882]}, 'edge': {'target': [], 'time': []}}, 'mouseout': {'state': {'target': ['1', '0', '9', '0', '5', '6', '1', '2', '6', '2', '3', '2', '4', '2', '7', '6', '8'], 'time': [1338, 1621, 2021, 2104, 2570, 4852, 5102, 5701, 6467, 7316, 8366, 8549, 9032, 9049, 9731, 9765, 10265]}, 'edge': {'target': [], 'time': []}}}","[24, 8, 4]","[190.72499999869615, 42.90500000026077, 11395.435000000289]",1,[],27,"[None, None, None]","['', 24, 4, -4, 2, 24, 8, 2, 4, -48, -4, -4, -4]",1135604,[],mouselab-mdp
0,27,"[5558, 6142, 7703]","['up', 'up', 'right']",training,"['0', '1', '2', '3']","{'click': {'state': {'target': ['1', '5', '9', '2', '4', '3'], 'time': [1511, 2248, 2959, 3631, 4255, 4688]}, 'edge': {'target': [], 'time': []}}, 'mouseover': {'state': {'target': ['8', '0', '0', '1', '5', '9', '10', '9', '0', '2', '4', '3'], 'time': [1101, 1184, 1217, 1401, 2150, 2550, 2583, 2850, 3251, 3449, 4198, 4465]}, 'edge': {'target': [], 'time': []}}, 'mouseout': {'state': {'target': ['8', '0', '0', '1', '5', '9', '10', '9', '0', '1', '2', '4', '2', '3', '1', '0'], 'time': [1118, 1201, 1234, 1900, 2516, 2567, 2633, 3184, 3283, 3382, 3949, 4382, 4432, 4898, 8662, 11975]}, 'edge': {'target': [], 'time': []}}}","[24, -8, 2]","[139.035000000149, 1186.364999999525, 5556.549999999348]",1,[],12,"[None, None, None]","['', 24, -8, 2, -4, -48, 8, 4, -4, -24, -4, 4, -4]",1145267,[],mouselab-mdp
0,28,"[9981, 10684, 12629]","['left', 'left', 'down']",training,"['0', '9', '10', '12']","{'click': {'state': {'target': ['1', '5', '9', '12', '11'], 'time': [1574, 2150, 2750, 8278, 8829]}, 'edge': {'target': [], 'time': []}}, 'mouseover': {'state': {'target': ['0', '0', '0', '1', '1', '5', '0', '9', '12', '10', '11'], 'time': [686, 869, 936, 1219, 1452, 1952, 2351, 2418, 7896, 8479, 8647]}, 'edge': {'target': [], 'time': []}}, 'mouseout': {'state': {'target': ['0', '0', '0', '1', '1', '5', '0', '9', '9', '12', '10', '11'], 'time': [719, 886, 1203, 1252, 1835, 2318, 2385, 3219, 7780, 8429, 8529, 8979]}, 'edge': {'target': [], 'time': []}}}","[48, -4, -2]","[77.61500000022352, 1055.2349999996368, 9980.890000000596]",1,[],37,"[None, None, None]","['', 24, 4, -2, -4, -48, 4, -2, -2, 48, -4, -2, -2]",1160443,[],mouselab-mdp
0,29,"[7469, 8078, 8814]","['right', 'right', 'down']",training,"['0', '5', '6', '8']","{'click': {'state': {'target': ['1', '5', '9', '7', '8'], 'time': [1782, 2854, 3350, 5542, 6118]}, 'edge': {'target': [], 'time': []}}, 'mouseover': {'state': {'target': ['2', '1', '0', '5', '0', '9', '0', '7', '6', '8'], 'time': [741, 1074, 2190, 2673, 3039, 3206, 5004, 5237, 5754, 5903]}, 'edge': {'target': [], 'time': []}}, 'mouseout': {'state': {'target': ['2', '1', '0', '5', '0', '9', '0', '5', '7', '6'], 'time': [791, 2073, 2539, 3006, 3173, 4954, 5021, 5054, 5720, 5787]}, 'edge': {'target': [], 'time': []}}}","[24, 8, 4]","[189.09499999973923, 1433.8399999996182, 7468.875000000466]",1,[],31,"[None, None, None]","['', -24, 8, 2, 2, 24, 8, -4, 4, -48, 8, 2, -2]",1172948,[],mouselab-mdp
0,30,"[13397, 14499, 15508]","['left', 'left', 'down']",training,"['0', '9', '10', '12']","{'click': {'state': {'target': ['1', '5', '9', '11', '12'], 'time': [2845, 3964, 4580, 10149, 11284]}, 'edge': {'target': [], 'time': []}}, 'mouseover': {'state': {'target': ['8', '0', '0', '1', '5', '5', '5', '0', '9', '10', '11', '10', '11', '10', '12'], 'time': [None, 1920, 2586, 2653, 3252, 3677, 3885, 4252, 4335, 6004, 6083, 8715, 9980, 10347, 10563]}, 'edge': {'target': [], 'time': []}}, 'mouseout': {'state': {'target': ['8', '0', '0', '1', '5', '5', '5', '0', '9', '10', '11', '10', '11', '10', '12'], 'time': [1421, 1970, 2603, 3187, 3352, 3752, 4218, 4285, 5068, 6050, 8615, 9947, 10330, 10415, 11980]}, 'edge': {'target': [], 'time': []}}}","[48, -4, 4]","[91.59499999997206, 228.24000000022352, 13396.024999999907]",1,[],43,"[None, None, None]","['', -48, 4, 2, 2, 48, -8, -4, 2, 48, -4, 2, 4]",1187130,[],mouselab-mdp
0,31,"[9489, 10225, 11011]","['left', 'left', 'down']",training,"['0', '9', '10', '12']","{'click': {'state': {'target': ['1', '5', '9', '11', '12'], 'time': [4891, 5291, 5866, 8011, 8562]}, 'edge': {'target': [], 'time': []}}, 'mouseover': {'state': {'target': ['1', '2', '2', '1', '5', '0', '0', '9', '11', '10', '12'], 'time': [4057, 4090, 4373, 4440, 5072, 5522, 5589, 5722, 7487, 8187, 8238]}, 'edge': {'target': [], 'time': []}}, 'mouseout': {'state': {'target': ['1', '2', '2', '1', '5', '0', '0', '9', '11', '10', '12'], 'time': [4073, 4157, 4406, 5039, 5489, 5572, 5605, 7420, 8171, 8203, 8703]}, 'edge': {'target': [], 'time': []}}}","[48, -8, 2]","[587.8200000007637, 496.989999999525, 9488.264999999898]",1,[],37,"[None, None, None]","['', 24, -8, 2, -2, 24, 8, -4, -4, 48, -8, -2, 2]",1197507,[],mouselab-mdp
0,32,"[7263, 7893, 8645]","['right', 'right', 'down']",training,"['0', '5', '6', '8']","{'click': {'state': {'target': ['1', '5', '9', '7', '8'], 'time': [1094, 1566, 2047, 5982, 6470]}, 'edge': {'target': [], 'time': []}}, 'mouseover': {'state': {'target': ['1', '5', '9', '6', '7', '6', '8'], 'time': [929, 1277, 1844, 5598, 5823, 6189, 6306]}, 'edge': {'target': [], 'time': []}}, 'mouseout': {'state': {'target': ['1', '5', '9', '5', '6', '7', '6'], 'time': [1227, 1776, 2326, 4374, 5623, 6140, 6239]}, 'edge': {'target': [], 'time': []}}}","[-24, 8, 2]","[222.76500000059605, 275.2650000001304, 7261.615000001388]",1,[],-19,"[None, None, None]","['', -48, 4, -4, -4, -24, 8, -4, 2, -48, -8, 4, -2]",1214603,[],mouselab-mdp
0,33,"[17505, 18089, 18825]","['left', 'left', 'up']",training,"['0', '9', '10', '11']","{'click': {'state': {'target': ['1', '5', '9', '3', '12', '11', '4', '2', '10'], 'time': [1682, 2082, 2658, 9211, 11321, 12353, 14393, 15713, 16481]}, 'edge': {'target': [], 'time': []}}, 'mouseover': {'state': {'target': ['8', '1', '5', '0', '9', '10', '10', '10', '2', '4', '2', '2', '3', '2', '4', '10', '12', '10', '11', '4', '2', '10', '6'], 'time': [None, 1468, 1851, 2300, 2517, 3017, 3350, 3633, 3799, 4116, 8046, 8346, 8779, 9729, 9844, 10810, 10977, 11776, 11843, 14091, 15507, 16322, 16723]}, 'edge': {'target': [], 'time': []}}, 'mouseout': {'state': {'target': ['8', '1', '5', '0', '9', '10', '10', '10', '2', '4', '2', '2', '3', '2', '4', '10', '12', '10', '11', '4', '2', '10', '9', '5', '6'], 'time': [1152, 1818, 2267, 2417, 2983, 3050, 3400, 3716, 3816, 8030, 8062, 8745, 9646, 9778, 10677, 10827, 11759, 11809, 13941, 15490, 15939, 16656, 16689, 16722, 16739]}, 'edge': {'target': [], 'time': []}}}","[48, 8, 4]","[120.82999999984168, 240.08499999926426, 17504.375000000466]",1,[],51,"[None, None, None]","['', 48, -4, 4, 4, 24, -8, 2, 2, 48, 8, 4, 2]",1226978,[],mouselab-mdp
0,34,"[11368, 11950, 12807]","['up', 'up', 'right']",training,"['0', '1', '2', '3']","{'click': {'state': {'target': ['1', '5', '9', '3', '4'], 'time': [4344, 5031, 5519, 7489, 8208]}, 'edge': {'target': [], 'time': []}}, 'mouseover': {'state': {'target': ['1', '5', '0', '9', '10', '10', '11', '4', '2', '3', '2', '4', '2'], 'time': [4242, 4726, 5274, 5357, 5957, 6273, 6524, 6723, 7156, 7189, 7656, 8072, 8322]}, 'edge': {'target': [], 'time': []}}, 'mouseout': {'state': {'target': ['1', '5', '0', '9', '10', '10', '11', '4', '2', '3', '2', '4', '2', '3', '0'], 'time': [4541, 5257, 5326, 5890, 5991, 6458, 6640, 7123, 7173, 7623, 7739, 8305, 8338, 10337, 13717]}, 'edge': {'target': [], 'time': []}}}","[24, 4, -2]","[66.89000000013039, 219.89500000001863, 11366.799999999814]",1,[],21,"[None, None, None]","['', 24, 4, -2, -4, -24, 8, -2, -4, -24, 4, 4, -4]",1237690,[],mouselab-mdp
3,0,"[3195, 11163, 12491]","['up', 'up', 'right']",training,"['0', '1', '2', '3']","{'click': {'state': {'target': [], 'time': []}, 'edge': {'target': [], 'time': []}}, 'mouseover': {'state': {'target': ['5', '1', '8'], 'time': [814, 930, 1229]}, 'edge': {'target': [], 'time': []}}, 'mouseout': {'state': {'target': ['5', '1', '8'], 'time': [847, 1196, 1246]}, 'edge': {'target': [], 'time': []}}}","[-48, 4, -2]","[77256.78999999946, 44885.385000001406, 24612.70499999955]",1,0,-46,"[None, None, None]","['', -48, 4, -2, -4, -48, 4, -2, 4, 24, -4, -2, -2]",77259,[],mouselab-mdp
3,1,"[2365, 8637, 9869]","['left', 'left', 'up']",training,"['0', '9', '10', '11']","{'click': {'state': {'target': [], 'time': []}, 'edge': {'target': [], 'time': []}}, 'mouseover': {'state': {'target': [], 'time': []}, 'edge': {'target': [], 'time': []}}, 'mouseout': {'state': {'target': [], 'time': []}, 'edge': {'target': [], 'time': []}}}","[-48, 8, 2]","[13230.750000002445, 22357.950000005076, 6309.655000004568]",1,0,-38,"[None, None, None]","['', -24, 8, 2, 2, 24, 8, -4, 4, -48, 8, 2, -2]",122147,[],mouselab-mdp
3,2,"[5799, 7671, 8951]","['right', 'right', 'up']",training,"['0', '5', '6', '7']","{'click': {'state': {'target': [], 'time': []}, 'edge': {'target': [], 'time': []}}, 'mouseover': {'state': {'target': [], 'time': []}, 'edge': {'target': [], 'time': []}}, 'mouseout': {'state': {'target': [], 'time': []}, 'edge': {'target': [], 'time': []}}}","[24, -8, 2]","[5414.145000002463, 9207.085000001825, 3193.520000000717]",1,[],18,"[None, None, None]","['', -24, -4, -2, -4, 24, -8, 2, -4, 24, -8, -4, -2]",153138,[],mouselab-mdp
3,3,"[2096, 3328, 4321]","['left', 'left', 'down']",training,"['0', '9', '10', '12']","{'click': {'state': {'target': [], 'time': []}, 'edge': {'target': [], 'time': []}}, 'mouseover': {'state': {'target': [], 'time': []}, 'edge': {'target': [], 'time': []}}, 'mouseout': {'state': {'target': [], 'time': []}, 'edge': {'target': [], 'time': []}}}","[-24, 4, 2]","[7480.179999998654, 825.4400000005262, 2364.419999998063]",1,[],-18,"[None, None, None]","['', 24, -8, 4, -4, -24, 8, 2, -4, -24, 4, 4, 2]",166371,[],mouselab-mdp
3,4,"[647, 2311, 3831]","['up', 'up', 'left']",training,"['0', '1', '2', '4']","{'click': {'state': {'target': [], 'time': []}, 'edge': {'target': [], 'time': []}}, 'mouseover': {'state': {'target': [], 'time': []}, 'edge': {'target': [], 'time': []}}, 'mouseout': {'state': {'target': [], 'time': []}, 'edge': {'target': [], 'time': []}}}","[24, 8, 4]","[5778.140000002168, 743.0349999995087, 5798.790000000736]",1,[],36,"[None, None, None]","['', 24, 8, -4, 4, 24, -8, -4, -2, 48, -4, 4, 4]",193363,[],mouselab-mdp
3,5,"[2541, 4638, 7710]","['left', 'left', 'down']",training,"['0', '9', '10', '12']","{'click': {'state': {'target': [], 'time': []}, 'edge': {'target': [], 'time': []}}, 'mouseover': {'state': {'target': [], 'time': []}, 'edge': {'target': [], 'time': []}}, 'mouseout': {'state': {'target': [], 'time': []}, 'edge': {'target': [], 'time': []}}}","[48, 8, 2]","[1375.2049999966403, 789.1600000002654, 2095.1249999998254]",1,[],58,"[None, None, None]","['', 48, -4, 4, 4, 24, -8, 2, 2, 48, 8, 4, 2]",199675,[],mouselab-mdp
3,6,"[4708, 5843, 7139]","['right', 'right', 'up']",training,"['0', '5', '6', '7']","{'click': {'state': {'target': [], 'time': []}, 'edge': {'target': [], 'time': []}}, 'mouseover': {'state': {'target': [], 'time': []}, 'edge': {'target': [], 'time': []}}, 'mouseout': {'state': {'target': [], 'time': []}, 'edge': {'target': [], 'time': []}}}","[24, -8, -2]","[738.5199999989709, 497.9400000011083, 646.389999994426]",1,[],14,"[None, None, None]","['', 48, 4, -2, -4, 24, -8, -2, 4, 48, -4, 4, 4]",208122,[],mouselab-mdp
3,7,"[1843, 3427, 4322]","['right', 'right', 'down']",training,"['0', '5', '6', '8']","{'click': {'state': {'target': [], 'time': []}, 'edge': {'target': [], 'time': []}}, 'mouseover': {'state': {'target': [], 'time': []}, 'edge': {'target': [], 'time': []}}, 'mouseout': {'state': {'target': [], 'time': []}, 'edge': {'target': [], 'time': []}}}","[-48, 8, -2]","[1168.774999998277, 1022.7599999998347, 2540.6999999977415]",1,[],-42,"[None, None, None]","['', -24, -8, -4, 2, -48, 8, 2, -2, 24, -4, -2, -4]",217331,[],mouselab-mdp
3,8,"[3048, 4200, 5592]","['up', 'up', 'right']",training,"['0', '1', '2', '3']","{'click': {'state': {'target': [], 'time': []}, 'edge': {'target': [], 'time': []}}, 'mouseover': {'state': {'target': [], 'time': []}, 'edge': {'target': [], 'time': []}}, 'mouseout': {'state': {'target': [], 'time': []}, 'edge': {'target': [], 'time': []}}}","[24, 8, 2]","[1596.480000000156, 2585.959999996703, 4707.064999995055]",1,[],34,"[None, None, None]","['', 24, 8, 2, 4, 48, 4, -4, -2, -48, 8, 2, -2]",234004,[],mouselab-mdp
3,9,"[1864, 2888, 4520]","['left', 'left', 'up']",training,"['0', '9', '10', '11']","{'click': {'state': {'target': [], 'time': []}, 'edge': {'target': [], 'time': []}}, 'mouseover': {'state': {'target': [], 'time': []}, 'edge': {'target': [], 'time': []}}, 'mouseout': {'state': {'target': [], 'time': []}, 'edge': {'target': [], 'time': []}}}","[48, 4, -4]","[641.9549999991432, 805.224999996426, 1842.5350000034086]",1,[],48,"[None, None, None]","['', 24, 8, 2, 4, 24, 8, -2, -4, 48, 4, -4, -2]",247011,[],mouselab-mdp
3,10,"[904, 1784, 2824]","['left', 'left', 'down']",training,"['0', '9', '10', '12']","{'click': {'state': {'target': [], 'time': []}, 'edge': {'target': [], 'time': []}}, 'mouseover': {'state': {'target': [], 'time': []}, 'edge': {'target': [], 'time': []}}, 'mouseout': {'state': {'target': [], 'time': []}, 'edge': {'target': [], 'time': []}}}","[24, -8, 4]","[1083.8850000000093, 395.3999999939697, 3047.3350000029313]",1,[],20,"[None, None, None]","['', -48, -8, -4, -2, -24, -8, -4, 2, 24, -8, 2, 4]",258643,[],mouselab-mdp
3,11,"[2653, 4285, 5149]","['up', 'up', 'left']",training,"['0', '1', '2', '4']","{'click': {'state': {'target': [], 'time': []}, 'edge': {'target': [], 'time': []}}, 'mouseover': {'state': {'target': [], 'time': []}, 'edge': {'target': [], 'time': []}}, 'mouseout': {'state': {'target': [], 'time': []}, 'edge': {'target': [], 'time': []}}}","[-24, -4, 2]","[649.3349999946076, 875.0999999974738, 1862.6899999944726]",1,[],-26,"[None, None, None]","['', -24, -4, -4, 2, -48, -4, -2, -4, 24, -8, 4, -4]",264532,[],mouselab-mdp
3,12,"[551, 2023, 3063]","['right', 'right', 'down']",training,"['0', '5', '6', '8']","{'click': {'state': {'target': [], 'time': []}, 'edge': {'target': [], 'time': []}}, 'mouseover': {'state': {'target': [], 'time': []}, 'edge': {'target': [], 'time': []}}, 'mouseout': {'state': {'target': [], 'time': []}, 'edge': {'target': [], 'time': []}}}","[-24, 8, 2]","[527.3049999959767, 1142.6050000009127, 903.2500000030268]",1,[],-14,"[None, None, None]","['', -48, 4, -4, -4, -24, 8, -4, 2, -48, -8, 4, -2]",270355,[],mouselab-mdp
3,13,"[907, 2379, 3467]","['left', 'left', 'up']",training,"['0', '9', '10', '11']","{'click': {'state': {'target': [], 'time': []}, 'edge': {'target': [], 'time': []}}, 'mouseover': {'state': {'target': [], 'time': []}, 'edge': {'target': [], 'time': []}}, 'mouseout': {'state': {'target': [], 'time': []}, 'edge': {'target': [], 'time': []}}}","[-24, 8, -4]","[388.9100000014878, 545.6150000027264, 2651.6850000043632]",1,[],-20,"[None, None, None]","['', 24, 4, -2, 4, -24, -8, -2, -4, -24, 8, -4, -2]",280836,[],mouselab-mdp
3,14,"[1973, 3141, 4069]","['left', 'left', 'up']",training,"['0', '9', '10', '11']","{'click': {'state': {'target': [], 'time': []}, 'edge': {'target': [], 'time': []}}, 'mouseover': {'state': {'target': [], 'time': []}, 'edge': {'target': [], 'time': []}}, 'mouseout': {'state': {'target': [], 'time': []}, 'edge': {'target': [], 'time': []}}}","[-48, -4, 4]","[1136.3899999996647, 367.27499999688007, 549.6799999964423]",1,[],-48,"[None, None, None]","['', -24, -4, 4, -2, 24, -4, 2, -4, -48, -4, 4, -4]",289476,[],mouselab-mdp
3,15,"[796, 1947, 3035]","['left', 'left', 'down']",training,"['0', '9', '10', '12']","{'click': {'state': {'target': [], 'time': []}, 'edge': {'target': [], 'time': []}}, 'mouseover': {'state': {'target': [], 'time': []}, 'edge': {'target': [], 'time': []}}, 'mouseout': {'state': {'target': [], 'time': []}, 'edge': {'target': [], 'time': []}}}","[-24, 8, -4]","[974.9850000007427, 547.6249999992433, 905.7150000007823]",1,[],-20,"[None, None, None]","['', 24, 4, 4, 4, 24, -4, -2, -2, -24, 8, -2, -4]",295108,[],mouselab-mdp
3,16,"[953, 3113, 3993]","['left', 'left', 'up']",training,"['0', '9', '10', '11']","{'click': {'state': {'target': [], 'time': []}, 'edge': {'target': [], 'time': []}}, 'mouseover': {'state': {'target': [], 'time': []}, 'edge': {'target': [], 'time': []}}, 'mouseout': {'state': {'target': [], 'time': []}, 'edge': {'target': [], 'time': []}}}","[-24, 8, -4]","[973.1900000042515, 594.5449999999255, 1972.075000005134]",1,[],-20,"[None, None, None]","['', -48, 8, -2, -4, 24, 4, -2, -2, -24, 8, -4, 2]",302580,[],mouselab-mdp
3,17,"[427, 2187, 2955]","['up', 'up', 'right']",training,"['0', '1', '2', '3']","{'click': {'state': {'target': [], 'time': []}, 'edge': {'target': [], 'time': []}}, 'mouseover': {'state': {'target': [], 'time': []}, 'edge': {'target': [], 'time': []}}, 'mouseout': {'state': {'target': [], 'time': []}, 'edge': {'target': [], 'time': []}}}","[-48, 4, -2]","[668.2050000017625, 431.61500000132946, 795.0749999945401]",1,[],-46,"[None, None, None]","['', -48, 4, -2, -4, -48, -4, -2, -4, -48, 8, 2, 2]",308580,[],mouselab-mdp
3,18,"[474, 1818, 2634]","['right', 'right', 'down']",training,"['0', '5', '6', '8']","{'click': {'state': {'target': [], 'time': []}, 'edge': {'target': [], 'time': []}}, 'mouseover': {'state': {'target': [], 'time': []}, 'edge': {'target': [], 'time': []}}, 'mouseout': {'state': {'target': [], 'time': []}, 'edge': {'target': [], 'time': []}}}","[-24, 8, -2]","[661.2899999963702, 599.1050000011455, 952.0499999998719]",1,[],-18,"[None, None, None]","['', -24, 4, -2, 4, -24, 8, 2, -2, 24, -4, 2, -4]",312948,[],mouselab-mdp
3,19,"[363, 1643, 2443]","['up', 'up', 'left']",training,"['0', '1', '2', '4']","{'click': {'state': {'target': [], 'time': []}, 'edge': {'target': [], 'time': []}}, 'mouseover': {'state': {'target': [], 'time': []}, 'edge': {'target': [], 'time': []}}, 'mouseout': {'state': {'target': [], 'time': []}, 'edge': {'target': [], 'time': []}}}","[-24, -4, 4]","[1658.5899999990943, 388.48999999754597, 426.07999999745516]",1,[],-24,"[None, None, None]","['', -24, -4, -2, 4, 48, -8, -4, -2, -24, 4, -4, -4]",319492,[],mouselab-mdp
3,20,"[393, 1385, 2313]","['left', 'left', 'down']",training,"['0', '9', '10', '12']","{'click': {'state': {'target': [], 'time': []}, 'edge': {'target': [], 'time': []}}, 'mouseover': {'state': {'target': [], 'time': []}, 'edge': {'target': [], 'time': []}}, 'mouseout': {'state': {'target': [], 'time': []}, 'edge': {'target': [], 'time': []}}}","[48, 4, -2]","[1258.6099999971339, 277.7399999977206, 473.0349999954342]",1,[],50,"[None, None, None]","['', 24, 8, -4, -2, 48, 4, 2, -4, 48, 4, 2, -2]",323972,[],mouselab-mdp
3,21,"[767, 2175, 3423]","['right', 'right', 'up']",training,"['0', '5', '6', '7']","{'click': {'state': {'target': [], 'time': []}, 'edge': {'target': [], 'time': []}}, 'mouseover': {'state': {'target': [], 'time': []}, 'edge': {'target': [], 'time': []}}, 'mouseout': {'state': {'target': [], 'time': []}, 'edge': {'target': [], 'time': []}}}","[48, 4, -4]","[854.81499999878, 320.7200000033481, 362.1149999962654]",1,[],48,"[None, None, None]","['', -48, -4, 2, -2, 48, 4, -4, -4, -24, -8, 2, 2]",328484,[],mouselab-mdp
3,22,"[1225, 2409, 3177]","['right', 'right', 'down']",training,"['0', '5', '6', '8']","{'click': {'state': {'target': [], 'time': []}, 'edge': {'target': [], 'time': []}}, 'mouseover': {'state': {'target': [], 'time': []}, 'edge': {'target': [], 'time': []}}, 'mouseout': {'state': {'target': [], 'time': []}, 'edge': {'target': [], 'time': []}}}","[-48, -8, -4]","[786.1049999992247, 302.76499999308726, 392.0650000000023]",1,[],-60,"[None, None, None]","['', -48, -4, 2, -2, -48, -8, -4, -4, -48, -4, 2, 4]",333492,[],mouselab-mdp
3,23,"[330, 1434, 2538]","['up', 'up', 'right']",training,"['0', '1', '2', '3']","{'click': {'state': {'target': [], 'time': []}, 'edge': {'target': [], 'time': []}}, 'mouseover': {'state': {'target': [], 'time': []}, 'edge': {'target': [], 'time': []}}, 'mouseout': {'state': {'target': [], 'time': []}, 'edge': {'target': [], 'time': []}}}","[24, -8, 2]","[505.33500000165077, 433.4149999995134, 765.9400000047754]",1,[],18,"[None, None, None]","['', 24, -8, 2, -2, 24, 8, -4, -4, 48, -8, -2, 2]",338003,[],mouselab-mdp
3,24,"[509, 1805, 2925]","['left', 'left', 'up']",training,"['0', '9', '10', '11']","{'click': {'state': {'target': [], 'time': []}, 'edge': {'target': [], 'time': []}}, 'mouseover': {'state': {'target': [], 'time': []}, 'edge': {'target': [], 'time': []}}, 'mouseout': {'state': {'target': [], 'time': []}, 'edge': {'target': [], 'time': []}}}","[24, -4, -4]","[921.5650000041933, 752.9950000025565, 1223.729999997886]",1,[],16,"[None, None, None]","['', -48, 8, -2, 4, -24, -4, 2, -2, 24, -4, -4, 4]",342915,[],mouselab-mdp
3,25,"[1347, 2387, 3091]","['left', 'left', 'down']",training,"['0', '9', '10', '12']","{'click': {'state': {'target': [], 'time': []}, 'edge': {'target': [], 'time': []}}, 'mouseover': {'state': {'target': [], 'time': []}, 'edge': {'target': [], 'time': []}}, 'mouseout': {'state': {'target': [], 'time': []}, 'edge': {'target': [], 'time': []}}}","[-48, 8, 4]","[667.860000001383, 269.6750000031898, 329.41500000015367]",1,[],-36,"[None, None, None]","['', -24, 4, 2, 2, 48, -4, 2, -4, -48, 8, -2, 4]",346979,[],mouselab-mdp
3,26,"[395, 1899, 2571]","['up', 'up', 'left']",training,"['0', '1', '2', '4']","{'click': {'state': {'target': [], 'time': []}, 'edge': {'target': [], 'time': []}}, 'mouseover': {'state': {'target': [], 'time': []}, 'edge': {'target': [], 'time': []}}, 'mouseout': {'state': {'target': [], 'time': []}, 'edge': {'target': [], 'time': []}}}","[-48, 4, 2]","[608.219999994617, 595.6200000000536, 508.0950000046869]",1,[],-42,"[None, None, None]","['', -48, 4, 2, 2, 48, -8, -4, 2, 48, -4, 2, 4]",350803,[],mouselab-mdp
3,27,"[455, 1751, 2807]","['right', 'right', 'up']",training,"['0', '5', '6', '7']","{'click': {'state': {'target': [], 'time': []}, 'edge': {'target': [], 'time': []}}, 'mouseover': {'state': {'target': [], 'time': []}, 'edge': {'target': [], 'time': []}}, 'mouseout': {'state': {'target': [], 'time': []}, 'edge': {'target': [], 'time': []}}}","[48, -4, -4]","[799.2700000031618, 619.010000002163, 1346.0349999950267]",1,[],40,"[None, None, None]","['', 24, -8, 2, -2, 48, -4, -4, -2, 24, -4, 4, -4]",354195,[],mouselab-mdp
3,28,"[2666, 3738, 4954]","['up', 'up', 'left']",training,"['0', '1', '2', '4']","{'click': {'state': {'target': [], 'time': []}, 'edge': {'target': [], 'time': []}}, 'mouseover': {'state': {'target': [], 'time': []}, 'edge': {'target': [], 'time': []}}, 'mouseout': {'state': {'target': [], 'time': []}, 'edge': {'target': [], 'time': []}}}","[24, 4, -4]","[542.6049999950919, 196.91000000602799, 393.28499999828637]",1,[],24,"[None, None, None]","['', 24, 4, -2, -4, -48, 4, -2, -2, 48, -4, -2, -2]",357827,[],mouselab-mdp
3,29,"[4340, 5380, 6404]","['left', 'left', 'down']",training,"['0', '9', '10', '12']","{'click': {'state': {'target': [], 'time': []}, 'edge': {'target': [], 'time': []}}, 'mouseover': {'state': {'target': [], 'time': []}, 'edge': {'target': [], 'time': []}}, 'mouseout': {'state': {'target': [], 'time': []}, 'edge': {'target': [], 'time': []}}}","[24, 8, -4]","[1014.3699999971432, 169.37000000325497, 454.3349999948987]",1,[],28,"[None, None, None]","['', 48, 4, -2, -2, -48, -8, 2, -2, 24, 8, -2, -4]",362467,[],mouselab-mdp
3,30,"[733, 1837, 3037]","['right', 'right', 'down']",training,"['0', '5', '6', '8']","{'click': {'state': {'target': [], 'time': []}, 'edge': {'target': [], 'time': []}}, 'mouseover': {'state': {'target': [], 'time': []}, 'edge': {'target': [], 'time': []}}, 'mouseout': {'state': {'target': [], 'time': []}, 'edge': {'target': [], 'time': []}}}","[24, 4, -4]","[793.6249999984284, 566.2650000012945, 2665.455000002112]",1,[],24,"[None, None, None]","['', 48, -4, -4, 2, 24, 4, -2, -4, 48, -4, -4, 4]",366883,[],mouselab-mdp
3,31,"[338, 1378, 2466]","['up', 'up', 'right']",training,"['0', '1', '2', '3']","{'click': {'state': {'target': [], 'time': []}, 'edge': {'target': [], 'time': []}}, 'mouseover': {'state': {'target': [], 'time': []}, 'edge': {'target': [], 'time': []}}, 'mouseout': {'state': {'target': [], 'time': []}, 'edge': {'target': [], 'time': []}}}","[24, -8, 2]","[583.3649999985937, 716.9300000023213, 4339.3899999937275]",1,[],18,"[None, None, None]","['', 24, -8, 2, -4, -48, 8, 4, -4, -24, -4, 4, -4]",370339,[],mouselab-mdp
3,32,"[465, 1329, 2081]","['left', 'left', 'down']",training,"['0', '9', '10', '12']","{'click': {'state': {'target': [], 'time': []}, 'edge': {'target': [], 'time': []}}, 'mouseover': {'state': {'target': [], 'time': []}, 'edge': {'target': [], 'time': []}}, 'mouseout': {'state': {'target': [], 'time': []}, 'edge': {'target': [], 'time': []}}}","[-48, 8, 4]","[540.5650000029709, 531.1599999986356, 732.7250000016647]",1,[],-36,"[None, None, None]","['', -48, -8, 4, -2, -48, 8, -4, -4, -48, 8, -2, 4]",374691,[],mouselab-mdp
3,33,"[378, 1450, 2251]","['right', 'right', 'up']",training,"['0', '5', '6', '7']","{'click': {'state': {'target': [], 'time': []}, 'edge': {'target': [], 'time': []}}, 'mouseover': {'state': {'target': [], 'time': []}, 'edge': {'target': [], 'time': []}}, 'mouseout': {'state': {'target': [], 'time': []}, 'edge': {'target': [], 'time': []}}}","[-24, -8, -4]","[602.8900000019348, 704.0349999952014, 337.3799999972107]",1,[],-36,"[None, None, None]","['', -24, 4, 2, -2, -24, -8, -4, 4, 24, 4, 2, 4]",378675,[],mouselab-mdp
3,34,"[333, 1325, 2237]","['up', 'up', 'left']",training,"['0', '1', '2', '4']","{'click': {'state': {'target': [], 'time': []}, 'edge': {'target': [], 'time': []}}, 'mouseover': {'state': {'target': [], 'time': []}, 'edge': {'target': [], 'time': []}}, 'mouseout': {'state': {'target': [], 'time': []}, 'edge': {'target': [], 'time': []}}}","[24, 4, -4]","[546.344999995199, 601.0949999981676, 464.6450000000186]",1,[],24,"[None, None, None]","['', 24, 4, -2, -4, -24, 8, -2, -4, -24, 4, 4, -4]",382115,[],mouselab-mdp
8,0,"[15457, 21552, 23648]","['up', 'up', 'left']",training,"['0', '1', '2', '4']","{'click': {'state': {'target': ['5', '9', '1'], 'time': [7234, 8914, 9868]}, 'edge': {'target': [], 'time': []}}, 'mouseover': {'state': {'target': ['1', '5', '8', '5', '0', '9', '1', '0', '0', '7'], 'time': [2332, 3750, 3949, 6751, 8217, 8403, 9652, 12186, 13019, 14036]}, 'edge': {'target': [], 'time': []}}, 'mouseout': {'state': {'target': ['1', '5', '8', '5', '0', '9', '1', '0', '0', '1', '7', '3'], 'time': [3716, 3799, 6651, 7667, 8284, 9485, 11969, 12255, 13036, 13920, 18188, 18454]}, 'edge': {'target': [], 'time': []}}}","[24, -8, -4]","[84749.7549999971, 25838.854999979958, 50779.759999830276]",1,0,9,"[None, None, None]","['', 24, -8, 4, -4, -24, 8, 2, -4, -24, 4, 4, 2]",84753,[],mouselab-mdp
8,1,"[4362, 5737, 7705]","['left', 'left', 'down']",training,"['0', '9', '10', '12']","{'click': {'state': {'target': ['5', '1', '9'], 'time': [2079, 2712, 3269]}, 'edge': {'target': [], 'time': []}}, 'mouseover': {'state': {'target': ['2', '7', '6', '5', '1', '9'], 'time': [None, 1056, 1123, 1356, 2491, 3040]}, 'edge': {'target': [], 'time': []}}, 'mouseout': {'state': {'target': ['2', '7', '6', '5', '1', '9'], 'time': [956, 1073, 1290, 2391, 2940, 3491]}, 'edge': {'target': [], 'time': []}}}","[48, 8, -2]","[11441.464999923483, 5592.915000161156, 6234.355000080541]",1,1.92,51,"[None, None, None]","['', 24, 4, -2, -2, -24, -4, 2, -4, 48, 8, -2, -2]",110595,[],mouselab-mdp
8,2,"[4246, 5030, 6598]","['right', 'right', 'down']",training,"['0', '5', '6', '8']","{'click': {'state': {'target': ['1', '5', '9'], 'time': [1081, 2709, 3382]}, 'edge': {'target': [], 'time': []}}, 'mouseover': {'state': {'target': ['1', '0', '0', '5', '0', '9'], 'time': [839, 1538, 2205, 2521, 2888, 2922]}, 'edge': {'target': [], 'time': []}}, 'mouseout': {'state': {'target': ['1', '0', '0', '5', '0', '9'], 'time': [1388, 1572, 2272, 2855, 2905, 8090]}, 'edge': {'target': [], 'time': []}}}","[48, -8, -2]","[11110.520000103861, 11633.900000015274, 49719.99999997206]",1,[],35,"[None, None, None]","['', 24, -8, 2, 4, 48, -8, -2, -2, -24, -4, 2, 4]",165446,[],mouselab-mdp
8,3,"[4181, 4901, 5813]","['right', 'right', 'up']",training,"['0', '5', '6', '7']","{'click': {'state': {'target': ['1', '5', '9'], 'time': [1796, 2696, 3346]}, 'edge': {'target': [], 'time': []}}, 'mouseover': {'state': {'target': ['9', '1', '1', '5', '0', '9'], 'time': [949, 1149, 1349, 2183, 2984, 3267]}, 'edge': {'target': [], 'time': []}}, 'mouseout': {'state': {'target': ['9', '1', '1', '5', '0'], 'time': [1049, 1183, 2100, 2950, 3134]}, 'edge': {'target': [], 'time': []}}}","[48, -4, 2]","[20840.265000006184, 15455.444999970496, 5595.440000062808]",1,[],43,"[None, None, None]","['', -24, 4, 2, 2, 48, -4, 2, -4, -48, 8, -2, 4]",176890,[],mouselab-mdp
8,4,"[11846, 13237, 13909]","['right', 'right', 'up']",training,"['0', '5', '6', '7']","{'click': {'state': {'target': ['1', '5', '9', '2', '3', '4', '10', '11', '12', '7', '6', '8'], 'time': [1792, 2308, 2802, 5664, 6282, 6879, 8042, 8458, 8982, 9568, 9952, 10247]}, 'edge': {'target': [], 'time': []}}, 'mouseover': {'state': {'target': ['9', '0', '1', '5', '0', '9', '0', '2', '3', '4', '10', '11', '12', '7', '6', '8'], 'time': [None, 908, 1670, 2104, 2521, 2555, 3306, 3764, 6106, 6658, 7889, 8307, 8807, 9290, 9807, 10140]}, 'edge': {'target': [], 'time': []}}, 'mouseout': {'state': {'target': ['9', '0', '1', '5', '0', '9', '0', '2', '3', '2', '4', '10', '11', '10', '12', '7', '6', '8', '6', '2', '4'], 'time': [538, 1563, 2021, 2471, 2538, 3254, 3338, 6072, 6589, 6657, 7122, 8273, 8656, 8740, 9140, 9757, 10090, 10490, 10524, 10577, 14893]}, 'edge': {'target': [], 'time': []}}}","[48, -4, 4]","[1605.6949999183416, 4360.504999989644, 877.464999910444]",1,[],36,"[None, None, None]","['', -24, -4, 2, -4, 48, -4, 4, -2, -24, 4, 2, -4]",185364,[],mouselab-mdp
8,5,"[3715, 4611, 5587]","['left', 'left', 'up']",training,"['0', '9', '10', '11']","{'click': {'state': {'target': ['1', '5', '9'], 'time': [1848, 2408, 2910]}, 'edge': {'target': [], 'time': []}}, 'mouseover': {'state': {'target': ['1', '1', '5', '0', '9'], 'time': [1405, 1672, 2222, 2589, 2772]}, 'edge': {'target': [], 'time': []}}, 'mouseout': {'state': {'target': ['1', '1', '5', '0', '9', '0'], 'time': [1422, 2005, 2555, 2606, 7140, 7174]}, 'edge': {'target': [], 'time': []}}}","[24, -8, 4]","[1477.489999961108, 4243.379999883473, 289.1149998176843]",1,[],17,"[None, None, None]","['', -24, -4, -4, 2, -48, -4, -2, -4, 24, -8, 4, -4]",191600,[],mouselab-mdp
8,6,"[2966, 3734, 4790]","['right', 'right', 'down']",training,"['0', '5', '6', '8']","{'click': {'state': {'target': ['5', '1', '9'], 'time': [1329, 1829, 2291]}, 'edge': {'target': [], 'time': []}}, 'mouseover': {'state': {'target': ['5', '1', '9'], 'time': [893, 1593, 2126]}, 'edge': {'target': [], 'time': []}}, 'mouseout': {'state': {'target': ['5', '1', '9'], 'time': [1526, 1993, 5911]}, 'edge': {'target': [], 'time': []}}}","[48, -8, 4]","[1073.1599999126047, 4179.884999990463, 230.44499987736344]",1,[],41,"[None, None, None]","['', -24, 4, 4, 4, 48, -8, -2, 4, 24, -4, -4, 4]",212310,[],mouselab-mdp
8,7,"[3014, 3734, 4950]","['right', 'right', 'up']",training,"['0', '5', '6', '7']","{'click': {'state': {'target': ['5', '1', '9'], 'time': [1168, 1729, 2221]}, 'edge': {'target': [], 'time': []}}, 'mouseover': {'state': {'target': ['0', '5', '1', '9'], 'time': [572, 956, 1456, 2056]}, 'edge': {'target': [], 'time': []}}, 'mouseout': {'state': {'target': ['0', '5', '1', '9'], 'time': [589, 1356, 1906, 5909]}, 'edge': {'target': [], 'time': []}}}","[48, 4, -4]","[409.50499987229705, 11844.569999957457, 894.0100001636893]",1,[],45,"[None, None, None]","['', 24, 8, 2, 4, 48, 4, -4, -2, -48, 8, 2, -2]",223946,[],mouselab-mdp
8,8,"[15074, 15745, 16417]","['left', 'left', 'up']",training,"['0', '9', '10', '11']","{'click': {'state': {'target': ['5', '1', '9', '6', '2', '10', '4', '3', '7', '8', '11', '12'], 'time': [1342, 1923, 2484, 4776, 5550, 6200, 7326, 7702, 8186, 8907, 9673, 10408]}, 'edge': {'target': [], 'time': []}}, 'mouseover': {'state': {'target': ['5', '1', '9', '9', '6', '2', '10', '4', '3', '7', '8', '8', '11', '12'], 'time': [1176, 1710, 2194, 2343, 4594, 5445, 6095, 7062, 7513, 8029, 8446, 8734, 9513, 10247]}, 'edge': {'target': [], 'time': []}}, 'mouseout': {'state': {'target': ['5', '1', '9', '9', '5', '6', '2', '10', '4', '2', '3', '7', '6', '8', '8', '10', '11', '10', '12', '9', '11'], 'time': [1560, 2076, 2227, 4244, 4544, 5179, 5745, 6845, 7446, 7496, 7912, 8329, 8396, 8546, 9063, 9180, 9963, 10080, 10547, 11130, 17282]}, 'edge': {'target': [], 'time': []}}}","[-48, -4, 2]","[182.0749999023974, 3713.190000038594, 402.96499989926815]",1,[],-62,"[None, None, None]","['', -48, -4, 2, -2, -48, -8, -4, -4, -48, -4, 2, 4]",283184,[],mouselab-mdp
8,9,"[3278, 4222, 5119]","['up', 'up', 'right']",training,"['0', '1', '2', '3']","{'click': {'state': {'target': ['5', '1', '9'], 'time': [1056, 1657, 2189]}, 'edge': {'target': [], 'time': []}}, 'mouseover': {'state': {'target': ['5', '1', '9'], 'time': [885, 1452, 1952]}, 'edge': {'target': [], 'time': []}}, 'mouseout': {'state': {'target': ['5', '1', '9', '9'], 'time': [1418, 1885, 5820, 6020]}, 'edge': {'target': [], 'time': []}}}","[24, -8, 2]","[479.45500002242625, 2964.339999947697, 272.69500005058944]",1,[],15,"[None, None, None]","['', 24, -8, 2, -4, -48, 8, 4, -4, -24, -4, 4, -4]",304026,[],mouselab-mdp
8,10,"[3189, 3909, 5557]","['right', 'right', 'down']",training,"['0', '5', '6', '8']","{'click': {'state': {'target': ['5', '1', '9'], 'time': [1176, 1613, 2223]}, 'edge': {'target': [], 'time': []}}, 'mouseover': {'state': {'target': ['5', '1', '9'], 'time': [976, 1442, 1976]}, 'edge': {'target': [], 'time': []}}, 'mouseout': {'state': {'target': ['5', '1', '9', '9'], 'time': [1342, 1895, 2509, 6628]}, 'edge': {'target': [], 'time': []}}}","[24, 8, -4]","[560.7999998610467, 3011.915000155568, 225.3450001589954]",1,[],25,"[None, None, None]","['', -48, 8, 4, 2, 24, 8, -2, -4, -24, 4, 4, 2]",332050,[],mouselab-mdp
8,11,"[2832, 3664, 4672]","['right', 'right', 'up']",training,"['0', '5', '6', '7']","{'click': {'state': {'target': ['5', '1', '9'], 'time': [953, 1649, 2087]}, 'edge': {'target': [], 'time': []}}, 'mouseover': {'state': {'target': ['8', '5', '1', '9'], 'time': [568, 701, 1534, 1918]}, 'edge': {'target': [], 'time': []}}, 'mouseout': {'state': {'target': ['8', '5', '1', '9'], 'time': [601, 1351, 1801, 5953]}, 'edge': {'target': [], 'time': []}}}","[48, -4, -4]","[724.2650000844151, 15071.874999906868, 176.81000009179115]",1,[],37,"[None, None, None]","['', 24, -8, -4, -2, 48, -4, -4, 2, -48, -8, -4, -4]",342002,[],mouselab-mdp
8,12,"[2771, 3442, 4146]","['left', 'left', 'down']",training,"['0', '9', '10', '12']","{'click': {'state': {'target': ['5', '1', '9'], 'time': [715, 1334, 1866]}, 'edge': {'target': [], 'time': []}}, 'mouseover': {'state': {'target': ['0', '5', '1', '9'], 'time': [330, 480, 1030, 1647]}, 'edge': {'target': [], 'time': []}}, 'mouseout': {'state': {'target': ['0', '5', '1', '9', '1'], 'time': [347, 947, 1497, 2130, 5198]}, 'edge': {'target': [], 'time': []}}}","[48, -4, -4]","[183.24499996379018, 3276.090000057593, 451.850000070408]",1,[],37,"[None, None, None]","['', 24, -8, -4, 2, 24, -4, 2, -2, 48, -4, 2, -4]",351026,[],mouselab-mdp
8,13,"[3070, 3790, 4720]","['right', 'right', 'up']",training,"['0', '5', '6', '7']","{'click': {'state': {'target': ['5', '1', '9'], 'time': [1142, 1673, 2127]}, 'edge': {'target': [], 'time': []}}, 'mouseover': {'state': {'target': ['5', '1', '9'], 'time': [995, 1395, 1979]}, 'edge': {'target': [], 'time': []}}, 'mouseout': {'state': {'target': ['5', '1', '9'], 'time': [1361, 1845, 5780]}, 'edge': {'target': [], 'time': []}}}","[24, 8, -4]","[398.1449999846518, 3187.434999970719, 230.3899999242276]",1,[],25,"[None, None, None]","['', -24, 8, 2, 2, 24, 8, -4, 4, -48, 8, 2, -2]",359058,[],mouselab-mdp
8,14,"[8689, 9393, 10065]","['left', 'left', 'down']",training,"['0', '9', '10', '12']","{'click': {'state': {'target': ['5', '1', '9', '2', '10', '4', '3', '11', '12'], 'time': [837, 1304, 1806, 4090, 4640, 5412, 6054, 6760, 7266]}, 'edge': {'target': [], 'time': []}}, 'mouseover': {'state': {'target': ['5', '5', '1', '9', '2', '10', '4', '3', '3', '11', '12'], 'time': [373, 691, 1106, 1540, 3958, 4458, 5208, 5675, 5991, 6625, 7042]}, 'edge': {'target': [], 'time': []}}, 'mouseout': {'state': {'target': ['5', '5', '1', '9', '2', '10', '4', '2', '3', '3', '2', '11', '10', '12', '10'], 'time': [523, 1006, 1440, 3490, 4241, 4924, 5608, 5641, 5692, 6242, 6308, 6908, 6992, 7492, 7542]}, 'edge': {'target': [], 'time': []}}}","[48, -4, 4]","[1144.4649999029934, 2829.915000125766, 342.63499989174306]",1,[],39,"[None, None, None]","['', 48, -4, -4, 2, 24, 4, -2, -4, 48, -4, -4, 4]",374994,[],mouselab-mdp
8,15,"[2552, 3177, 3912]","['up', 'up', 'right']",training,"['0', '1', '2', '3']","{'click': {'state': {'target': ['5', '1', '9'], 'time': [969, 1437, 1837]}, 'edge': {'target': [], 'time': []}}, 'mouseover': {'state': {'target': ['1', '5', '1', '9'], 'time': [635, 785, 1218, 1652]}, 'edge': {'target': [], 'time': []}}, 'mouseout': {'state': {'target': ['1', '5', '1', '9'], 'time': [652, 1168, 1602, 4786]}, 'edge': {'target': [], 'time': []}}}","[48, -4, 4]","[518.0699999909848, 2769.564999965951, 176.6999999526888]",1,[],45,"[None, None, None]","['', 48, -4, 4, 2, -48, -8, 4, 2, 24, 8, -2, 2]",382962,[],mouselab-mdp
8,16,"[4024, 4535, 5368]","['right', 'right', 'down']",training,"['0', '5', '6', '8']","{'click': {'state': {'target': ['5', '1', '9'], 'time': [1919, 2443, 2849]}, 'edge': {'target': [], 'time': []}}, 'mouseover': {'state': {'target': ['0', '0', '5', '1', '9', '0'], 'time': [1408, 1692, 1775, 2292, 2708, 3276]}, 'edge': {'target': [], 'time': []}}, 'mouseout': {'state': {'target': ['0', '0', '5', '1', '9', '0'], 'time': [1575, 1708, 2192, 2608, 3242, 3325]}, 'edge': {'target': [], 'time': []}}}","[24, 8, -4]","[212.9049999639392, 3068.5350000858307, 225.80500016920269]",1,[],25,"[None, None, None]","['', -48, 4, -4, 2, 24, 8, 4, -4, -24, 4, 4, -2]",389618,[],mouselab-mdp
8,17,"[2862, 3550, 4237]","['left', 'left', 'up']",training,"['0', '9', '10', '11']","{'click': {'state': {'target': ['5', '1', '9'], 'time': [926, 1499, 1975]}, 'edge': {'target': [], 'time': []}}, 'mouseover': {'state': {'target': ['5', '1', '9'], 'time': [736, 1219, 1819]}, 'edge': {'target': [], 'time': []}}, 'mouseout': {'state': {'target': ['5', '1', '9'], 'time': [1119, 1654, 4804]}, 'edge': {'target': [], 'time': []}}}","[48, 4, -4]","[436.83500005863607, 8687.43499997072, 214.4049999769777]",1,[],45,"[None, None, None]","['', 24, 8, 2, 4, 24, 8, -2, -4, 48, 4, -4, -2]",396562,[],mouselab-mdp
8,18,"[2975, 3712, 4480]","['left', 'left', 'down']",training,"['0', '9', '10', '12']","{'click': {'state': {'target': ['5', '1', '9'], 'time': [1110, 1531, 2032]}, 'edge': {'target': [], 'time': []}}, 'mouseover': {'state': {'target': ['0', '5', '1', '9'], 'time': [709, 993, 1342, 1759]}, 'edge': {'target': [], 'time': []}}, 'mouseout': {'state': {'target': ['0', '5', '1'], 'time': [726, 1259, 1693]}, 'edge': {'target': [], 'time': []}}}","[24, -4, 4]","[170.63499987125397, 2550.66499998793, 122.77000001631677]",1,[],21,"[None, None, None]","['', -48, 8, -2, 4, -24, -4, 2, -2, 24, -4, -4, 4]",414675,[],mouselab-mdp
8,19,"[6973, 7646, 8414]","['right', 'right', 'down']",training,"['0', '5', '6', '8']","{'click': {'state': {'target': ['5', '1', '9', '10', '11', '2', '3', '6'], 'time': [1419, 1857, 2302, 2897, 3375, 4070, 4640, 5769]}, 'edge': {'target': [], 'time': []}}, 'mouseover': {'state': {'target': ['9', '0', '5', '1', '9', '10', '11', '2', '3', '4', '6'], 'time': [None, 688, 1021, 1605, 2105, 2689, 3272, 3922, 4489, 5057, 5673]}, 'edge': {'target': [], 'time': []}}, 'mouseout': {'state': {'target': ['9', '0', '5', '1', '9', '10', '11', '2', '3', '2', '4', '6', '8'], 'time': [638, 705, 1555, 2022, 2640, 3222, 3589, 4456, 4973, 5023, 5323, 9491, 9658]}, 'edge': {'target': [], 'time': []}}}","[-24, 8, 2]","[241.03499995544553, 4022.029999876395, 24.304999969899654]",1,[],-22,"[None, None, None]","['', -48, 4, -4, -4, -24, 8, -4, 2, -48, -8, 4, -2]",421842,[],mouselab-mdp
8,20,"[4966, 5560, 6471]","['up', 'up', 'right']",training,"['0', '1', '2', '3']","{'click': {'state': {'target': ['5', '1', '9'], 'time': [964, 1501, 1964]}, 'edge': {'target': [], 'time': []}}, 'mouseover': {'state': {'target': ['5', '1', '9'], 'time': [814, 1331, 1781]}, 'edge': {'target': [], 'time': []}}, 'mouseout': {'state': {'target': ['5', '1', '9', '1', '0'], 'time': [1298, 1664, 4115, 7000, 7367]}, 'edge': {'target': [], 'time': []}}}","[48, 4, -2]","[322.2799999639392, 2860.3900000452995, 194.6849999949336]",1,[],47,"[None, None, None]","['', 48, 4, -2, -4, 24, -8, -2, 4, 48, -4, 4, 4]",429284,[],mouselab-mdp
8,21,"[2633, 3273, 3960]","['right', 'right', 'down']",training,"['0', '5', '6', '8']","{'click': {'state': {'target': ['5', '1'], 'time': [1064, 1674]}, 'edge': {'target': [], 'time': []}}, 'mouseover': {'state': {'target': ['5', '1'], 'time': [927, 1460]}, 'edge': {'target': [], 'time': []}}, 'mouseout': {'state': {'target': ['5', '1', '5'], 'time': [1427, 4878, 4945]}, 'edge': {'target': [], 'time': []}}}","[48, -8, -4]","[197.07500003278255, 2973.1100001372397, 233.28000004403293]",1,[],34,"[None, None, None]","['', -48, 8, -2, -2, 48, -8, 2, -4, -48, -8, 4, 4]",435874,[],mouselab-mdp
8,22,"[3676, 4364, 5117]","['left', 'left', 'up']",training,"['0', '9', '10', '11']","{'click': {'state': {'target': ['5', '1', '9'], 'time': [1190, 1955, 2425]}, 'edge': {'target': [], 'time': []}}, 'mouseover': {'state': {'target': ['5', '1', '9'], 'time': [1038, 1855, 2255]}, 'edge': {'target': [], 'time': []}}, 'mouseout': {'state': {'target': ['5', '1', '9'], 'time': [1521, 2188, 5973]}, 'edge': {'target': [], 'time': []}}}","[24, -8, -4]","[268.09999998658895, 6971.499999985099, 170.59500003233552]",1,[],9,"[None, None, None]","['', -24, -4, -2, -4, 24, -8, 2, -4, 24, -8, -4, -2]",441874,[],mouselab-mdp
8,23,"[3358, 4044, 5132]","['left', 'left', 'down']",training,"['0', '9', '10', '12']","{'click': {'state': {'target': ['5', '1', '9'], 'time': [1053, 1655, 2336]}, 'edge': {'target': [], 'time': []}}, 'mouseover': {'state': {'target': ['8', '7', '5', '1', '9'], 'time': [440, 740, 857, 1425, 2174]}, 'edge': {'target': [], 'time': []}}, 'mouseout': {'state': {'target': ['8', '7', '5', '1', '1', '9'], 'time': [458, 774, 1374, 1857, 2061, 2574]}, 'edge': {'target': [], 'time': []}}}","[24, 8, 4]","[271.40500000678, 4963.555000023916, 92.27000013925135]",1,[],33,"[None, None, None]","['', -48, -4, -2, 4, -24, -4, 4, 4, 24, 8, -2, 4]",448419,[],mouselab-mdp
8,24,"[3547, 4219, 4986]","['left', 'left', 'up']",training,"['0', '9', '10', '11']","{'click': {'state': {'target': ['5', '1', '9'], 'time': [982, 1559, 2099]}, 'edge': {'target': [], 'time': []}}, 'mouseover': {'state': {'target': ['7', '5', '1', '9'], 'time': [533, 782, 1216, 2016]}, 'edge': {'target': [], 'time': []}}, 'mouseout': {'state': {'target': ['7', '5', '1'], 'time': [582, 1149, 1833]}, 'edge': {'target': [], 'time': []}}}","[48, -8, -2]","[419.0750000998378, 2630.834999959916, 144.31999996304512]",1,[],35,"[None, None, None]","['', 24, -8, 2, -2, 24, 8, -4, -4, 48, -8, -2, 2]",460018,[],mouselab-mdp
8,25,"[3071, 3662, 4271]","['right', 'right', 'down']",training,"['0', '5', '6', '8']","{'click': {'state': {'target': ['5', '1', '9'], 'time': [1035, 1708, 2162]}, 'edge': {'target': [], 'time': []}}, 'mouseover': {'state': {'target': ['9', '0', '5', '5', '1', '1', '9'], 'time': [None, 576, 742, 875, 1226, 1559, 2042]}, 'edge': {'target': [], 'time': []}}, 'mouseout': {'state': {'target': ['9', '0', '5', '5', '1', '1', '9'], 'time': [559, 625, 808, 1192, 1292, 1909, 4926]}, 'edge': {'target': [], 'time': []}}}","[24, -4, -4]","[196.8649998307228, 3674.654999980703, 190.1450001168996]",1,[],13,"[None, None, None]","['', -24, -4, 4, -2, 24, -4, 2, -4, -48, -4, 4, -4]",466531,[],mouselab-mdp
8,26,"[6703, 7262, 8095]","['left', 'left', 'down']",training,"['0', '9', '10', '12']","{'click': {'state': {'target': ['5', '1', '9', '2', '6', '10'], 'time': [1072, 1596, 2095, 3933, 4942, 5615]}, 'edge': {'target': [], 'time': []}}, 'mouseover': {'state': {'target': ['1', '6', '5', '1', '9', '2', '6', '10', '10'], 'time': [615, 831, 948, 1448, 1965, 3816, 4769, 5216, 5533]}, 'edge': {'target': [], 'time': []}}, 'mouseout': {'state': {'target': ['1', '6', '5', '1', '9', '2', '6', '5', '10', '10', '4'], 'time': [632, 881, 1298, 1831, 3516, 4132, 5149, 5183, 5233, 6234, 8734]}, 'edge': {'target': [], 'time': []}}}","[-48, 8, 2]","[258.9350000489503, 3355.8199999388307, 184.66500006616116]",1,[],-44,"[None, None, None]","['', -48, 4, -2, -4, -48, -4, -2, -4, -48, 8, 2, 2]",473396,[],mouselab-mdp
8,27,"[3761, 4401, 5409]","['left', 'left', 'up']",training,"['0', '9', '10', '11']","{'click': {'state': {'target': ['5', '1', '9'], 'time': [1174, 1841, 2324]}, 'edge': {'target': [], 'time': []}}, 'mouseover': {'state': {'target': ['5', '1', '9', '0'], 'time': [1079, 1694, 2261, 2660]}, 'edge': {'target': [], 'time': []}}, 'mouseout': {'state': {'target': ['5', '1', '9', '0'], 'time': [1560, 2061, 2611, 2677]}, 'edge': {'target': [], 'time': []}}}","[48, -4, 4]","[588.939999928698, 3545.024999883026, 182.39500001072884]",1,[],45,"[None, None, None]","['', 24, 8, -4, 4, 24, -8, -4, -2, 48, -4, 4, 4]",479059,[],mouselab-mdp
8,28,"[7701, 8262, 8854]","['right', 'right', 'down']",training,"['0', '5', '6', '8']","{'click': {'state': {'target': ['5', '1', '9', '6', '10', '11', '2'], 'time': [1224, 1748, 2264, 3468, 4000, 4517, 5008]}, 'edge': {'target': [], 'time': []}}, 'mouseover': {'state': {'target': ['5', '6', '6', '5', '1', '9', '0', '6', '0', '10', '11', '2'], 'time': [579, 628, 878, 1112, 1462, 2012, 3163, 3246, 3697, 3747, 4380, 4846]}, 'edge': {'target': [], 'time': []}}, 'mouseout': {'state': {'target': ['5', '6', '6', '5', '1', '9', '0', '5', '6', '5', '0', '9', '10', '11'], 'time': [595, 646, 928, 1395, 1929, 3146, 3181, 3213, 3663, 3696, 3713, 3730, 4313, 4680]}, 'edge': {'target': [], 'time': []}}}","[-24, 4, -2]","[266.7950000613928, 3068.8400000799447, 100.55999993346632]",1,[],-29,"[None, None, None]","['', -48, 4, 4, -2, -24, 4, -2, -2, -48, -4, 4, -4]",485346,[],mouselab-mdp
8,29,"[2124, 2717, 3660]","['right', 'right', 'up']",training,"['0', '5', '6', '7']","{'click': {'state': {'target': ['5'], 'time': [943]}, 'edge': {'target': [], 'time': []}}, 'mouseover': {'state': {'target': ['2', '3', '5', '1'], 'time': [None, 504, 771, 1238]}, 'edge': {'target': [], 'time': []}}, 'mouseout': {'state': {'target': ['2', '3', '5'], 'time': [471, 571, 1138]}, 'edge': {'target': [], 'time': []}}}","[48, -8, -4]","[109.10000000149012, 6700.084999902174, 60.34999992698431]",1,[],35,"[None, None, None]","['', -48, 4, 2, 2, 48, -8, -4, 2, 48, -4, 2, 4]",495651,[],mouselab-mdp
8,30,"[2679, 3319, 4216]","['up', 'up', 'left']",training,"['0', '1', '2', '4']","{'click': {'state': {'target': ['5', '1'], 'time': [1032, 1532]}, 'edge': {'target': [], 'time': []}}, 'mouseover': {'state': {'target': ['1', '5', '1', '9'], 'time': [None, 920, 1386, 1820]}, 'edge': {'target': [], 'time': []}}, 'mouseout': {'state': {'target': ['1', '5', '1'], 'time': [422, 1236, 1753]}, 'edge': {'target': [], 'time': []}}}","[48, 4, -4]","[342.53000002354383, 3759.7000000532717, 138.03000003099442]",1,[],46,"[None, None, None]","['', 48, 4, -4, -4, -24, -8, 2, 2, 24, -4, 4, -2]",503827,[],mouselab-mdp
8,31,"[3318, 3861, 4533]","['right', 'right', 'down']",training,"['0', '5', '6', '8']","{'click': {'state': {'target': ['9', '1', '5'], 'time': [1027, 1786, 2326]}, 'edge': {'target': [], 'time': []}}, 'mouseover': {'state': {'target': ['9', '1', '9', '1', '1', '5'], 'time': [None, 475, 792, 1342, 1658, 2125]}, 'edge': {'target': [], 'time': []}}, 'mouseout': {'state': {'target': ['9', '1', '9', '1', '1'], 'time': [460, 708, 1258, 1493, 2025]}, 'edge': {'target': [], 'time': []}}}","[48, -4, -2]","[512.590000173077, 7699.809999903664, 62.52999999560416]",1,[],39,"[None, None, None]","['', 24, -8, 2, -2, 48, -4, -4, -2, 24, -4, 4, -4]",509554,[],mouselab-mdp
8,32,"[2263, 2904, 3623]","['right', 'right', 'up']",training,"['0', '5', '6', '7']","{'click': {'state': {'target': ['5'], 'time': [1235]}, 'edge': {'target': [], 'time': []}}, 'mouseover': {'state': {'target': ['5'], 'time': [None]}, 'edge': {'target': [], 'time': []}}, 'mouseout': {'state': {'target': ['5'], 'time': [4524]}, 'edge': {'target': [], 'time': []}}}","[48, 4, -2]","[103.41500001959503, 2122.454999946058, 93.20000000298023]",1,[],49,"[None, None, None]","['', 24, 8, -4, 4, 48, 4, -2, -2, -48, -8, -4, 2]",516355,[],mouselab-mdp
8,33,"[3635, 4276, 4980]","['left', 'left', 'up']",training,"['0', '9', '10', '11']","{'click': {'state': {'target': ['1', '9'], 'time': [1492, 2315]}, 'edge': {'target': [], 'time': []}}, 'mouseover': {'state': {'target': ['7', '5', '1', '9', '9', '0', '5', '5'], 'time': [830, 1012, 1379, 1946, 2196, 2513, 2580, 3063]}, 'edge': {'target': [], 'time': []}}, 'mouseout': {'state': {'target': ['7', '5', '1', '1', '9', '9', '0', '5', '5'], 'time': [895, 1231, 1629, 1912, 1996, 2496, 2546, 2613, 5797]}, 'edge': {'target': [], 'time': []}}}","[48, 8, -2]","[452.3149998858571, 2676.919999998063, 147.02999987639487]",1,[],52,"[None, None, None]","['', -48, 4, 2, -4, -48, 8, -4, -4, 48, 8, -2, -2]",522962,[],mouselab-mdp
8,34,"[2204, 2811, 4139]","['right', 'right', 'down']",training,"['0', '5', '6', '8']","{'click': {'state': {'target': ['5'], 'time': [1303]}, 'edge': {'target': [], 'time': []}}, 'mouseover': {'state': {'target': ['5'], 'time': [1072]}, 'edge': {'target': [], 'time': []}}, 'mouseout': {'state': {'target': [], 'time': []}, 'edge': {'target': [], 'time': []}}}","[48, -8, -2]","[409.16000003926456, 3315.900000045076, 50.26499996893108]",1,[],37,"[None, None, None]","['', -24, -4, -2, 4, 48, -8, -4, -2, -24, 4, -4, -4]",529826,[],mouselab-mdp
11,0,"[9897, 13393, 21121]","['right', 'right', 'up']",training,"['0', '5', '6', '7']","{'click': {'state': {'target': [], 'time': []}, 'edge': {'target': [], 'time': []}}, 'mouseover': {'state': {'target': ['0', '5', '5', '9'], 'time': [1774, 2173, 4122, 9369]}, 'edge': {'target': [], 'time': []}}, 'mouseout': {'state': {'target': ['0', '5', '5', '9', '10'], 'time': [1856, 3271, 8104, 9502, 23215]}, 'edge': {'target': [], 'time': []}}}","[48, -4, 4]","[89713.51999999024, 18360.49999995157, 9893.144999979995]",1,0,48,"[None, None, None]","['', -24, -4, 2, -4, 48, -4, 4, -2, -24, 4, 2, -4]",89717,[],mouselab-mdp
11,1,"[3099, 7222, 9643]","['up', 'up', 'left']",training,"['0', '1', '2', '4']","{'click': {'state': {'target': [], 'time': []}, 'edge': {'target': [], 'time': []}}, 'mouseover': {'state': {'target': [], 'time': []}, 'edge': {'target': [], 'time': []}}, 'mouseout': {'state': {'target': [], 'time': []}, 'edge': {'target': [], 'time': []}}}","[-24, -4, -4]","[2968.349999981001, 7200.809999951161, 3096.7599999858066]",1,0.41,-32,"[None, None, None]","['', -24, -4, -2, -4, 24, -8, 2, -4, 24, -8, -4, -2]",108081,[],mouselab-mdp
11,2,"[1285, 2754, 4490]","['left', 'left', 'down']",training,"['0', '9', '10', '12']","{'click': {'state': {'target': [], 'time': []}, 'edge': {'target': [], 'time': []}}, 'mouseover': {'state': {'target': [], 'time': []}, 'edge': {'target': [], 'time': []}}, 'mouseout': {'state': {'target': [], 'time': []}, 'edge': {'target': [], 'time': []}}}","[24, -4, 4]","[3625.6300000241026, 1900.2399999881163, 1283.1499999156222]",1,[],24,"[None, None, None]","['', -24, 4, 4, 4, 48, -8, -2, 4, 24, -4, -4, 4]",132274,[],mouselab-mdp
11,3,"[2942, 4288, 5799]","['up', 'up', 'right']",training,"['0', '1', '2', '3']","{'click': {'state': {'target': [], 'time': []}, 'edge': {'target': [], 'time': []}}, 'mouseover': {'state': {'target': [], 'time': []}, 'edge': {'target': [], 'time': []}}, 'mouseout': {'state': {'target': [], 'time': []}, 'edge': {'target': [], 'time': []}}}","[48, 8, 2]","[961.4200000651181, 1232.4350000126287, 2940.39000000339]",1,[],58,"[None, None, None]","['', 48, 8, 2, 2, 48, -8, 4, 4, 48, -4, 4, 4]",144934,[],mouselab-mdp
11,4,"[3818, 4996, 5972]","['right', 'right', 'up']",training,"['0', '5', '6', '7']","{'click': {'state': {'target': [], 'time': []}, 'edge': {'target': [], 'time': []}}, 'mouseover': {'state': {'target': [], 'time': []}, 'edge': {'target': [], 'time': []}}, 'mouseout': {'state': {'target': [], 'time': []}, 'edge': {'target': [], 'time': []}}}","[24, 8, -2]","[840.2200000127777, 1001.6149999573827, 3816.560000064783]",1,[],30,"[None, None, None]","['', -48, -8, 4, 2, 24, 8, -2, -2, -24, 4, 4, 4]",151013,[],mouselab-mdp
11,5,"[1331, 3450, 5466]","['left', 'left', 'down']",training,"['0', '9', '10', '12']","{'click': {'state': {'target': [], 'time': []}, 'edge': {'target': [], 'time': []}}, 'mouseover': {'state': {'target': [], 'time': []}, 'edge': {'target': [], 'time': []}}, 'mouseout': {'state': {'target': [], 'time': []}, 'edge': {'target': [], 'time': []}}}","[48, -4, -4]","[686.6199999349192, 464.1799998935312, 1328.1950000673532]",1,[],40,"[None, None, None]","['', 24, -8, -4, 2, 24, -4, 2, -2, 48, -4, 2, -4]",158314,[],mouselab-mdp
11,6,"[1336, 2291, 3618]","['up', 'up', 'right']",training,"['0', '1', '2', '3']","{'click': {'state': {'target': [], 'time': []}, 'edge': {'target': [], 'time': []}}, 'mouseover': {'state': {'target': [], 'time': []}, 'edge': {'target': [], 'time': []}}, 'mouseout': {'state': {'target': [], 'time': []}, 'edge': {'target': [], 'time': []}}}","[-48, 4, 2]","[1611.6799999726936, 1510.9050000319257, 1334.415000048466]",1,[],-42,"[None, None, None]","['', -48, 4, 2, 2, 48, -8, -4, 2, 48, -4, 2, 4]",165774,[],mouselab-mdp
11,7,"[1251, 2436, 3558]","['up', 'up', 'left']",training,"['0', '1', '2', '4']","{'click': {'state': {'target': [], 'time': []}, 'edge': {'target': [], 'time': []}}, 'mouseover': {'state': {'target': [], 'time': []}, 'edge': {'target': [], 'time': []}}, 'mouseout': {'state': {'target': [], 'time': []}, 'edge': {'target': [], 'time': []}}}","[48, -4, 4]","[444.47999994736165, 805.9399999910966, 1249.4000000879169]",1,[],48,"[None, None, None]","['', 48, -4, 2, 4, 48, -8, -2, 2, -48, -4, -4, 4]",180260,[],mouselab-mdp
11,8,"[1434, 2268, 4229]","['left', 'left', 'up']",training,"['0', '9', '10', '11']","{'click': {'state': {'target': [], 'time': []}, 'edge': {'target': [], 'time': []}}, 'mouseover': {'state': {'target': [], 'time': []}, 'edge': {'target': [], 'time': []}}, 'mouseout': {'state': {'target': [], 'time': []}, 'edge': {'target': [], 'time': []}}}","[-24, 4, 4]","[658.0400000093505, 613.2450000150129, 1433.1600000150502]",1,[],-16,"[None, None, None]","['', -48, -4, -4, 2, 48, -4, -4, -2, -24, 4, 4, 2]",185178,[],mouselab-mdp
11,9,"[1673, 2572, 4310]","['left', 'left', 'down']",training,"['0', '9', '10', '12']","{'click': {'state': {'target': [], 'time': []}, 'edge': {'target': [], 'time': []}}, 'mouseover': {'state': {'target': [], 'time': []}, 'edge': {'target': [], 'time': []}}, 'mouseout': {'state': {'target': [], 'time': []}, 'edge': {'target': [], 'time': []}}}","[24, -8, -4]","[337.79999997932464, 1449.3850000435486, 1671.489999978803]",1,[],12,"[None, None, None]","['', -24, -4, -4, 2, -48, -4, -2, -4, 24, -8, 4, -4]",189727,[],mouselab-mdp
11,10,"[1146, 2061, 3085]","['right', 'right', 'up']",training,"['0', '5', '6', '7']","{'click': {'state': {'target': [], 'time': []}, 'edge': {'target': [], 'time': []}}, 'mouseover': {'state': {'target': [], 'time': []}, 'edge': {'target': [], 'time': []}}, 'mouseout': {'state': {'target': [], 'time': []}, 'edge': {'target': [], 'time': []}}}","[48, -4, 2]","[388.05000006686896, 1226.8199999816716, 1144.6750001050532]",1,[],46,"[None, None, None]","['', -24, 4, 2, 2, 48, -4, 2, -4, -48, 8, -2, 4]",195140,[],mouselab-mdp
11,11,"[1105, 1999, 2833]","['right', 'right', 'down']",training,"['0', '5', '6', '8']","{'click': {'state': {'target': [], 'time': []}, 'edge': {'target': [], 'time': []}}, 'mouseover': {'state': {'target': ['12'], 'time': [None]}, 'edge': {'target': [], 'time': []}}, 'mouseout': {'state': {'target': [], 'time': []}, 'edge': {'target': [], 'time': []}}}","[-24, -4, -4]","[394.8300000047311, 502.80999997630715, 1102.5650000665337]",1,[],-32,"[None, None, None]","['', 24, 4, -2, -2, -24, -4, 2, -4, 48, 8, -2, -2]",200434,[],mouselab-mdp
11,12,"[1195, 2045, 3163]","['up', 'up', 'left']",training,"['0', '1', '2', '4']","{'click': {'state': {'target': [], 'time': []}, 'edge': {'target': [], 'time': []}}, 'mouseover': {'state': {'target': ['12', '9'], 'time': [None, 875]}, 'edge': {'target': [], 'time': []}}, 'mouseout': {'state': {'target': ['12', '9'], 'time': [727, 993]}, 'edge': {'target': [], 'time': []}}}","[24, -8, 2]","[367.34999995678663, 317.61000002734363, 1192.7050000522286]",1,[],18,"[None, None, None]","['', 24, -8, -2, 2, -24, 8, 4, 2, -24, -4, -2, 2]",204477,[],mouselab-mdp
11,13,"[1126, 2038, 3837]","['left', 'left', 'down']",training,"['0', '9', '10', '12']","{'click': {'state': {'target': [], 'time': []}, 'edge': {'target': [], 'time': []}}, 'mouseover': {'state': {'target': [], 'time': []}, 'edge': {'target': [], 'time': []}}, 'mouseout': {'state': {'target': [], 'time': []}, 'edge': {'target': [], 'time': []}}}","[-24, 4, -4]","[333.5850000148639, 602.4400000460446, 1123.9399999612942]",1,[],-24,"[None, None, None]","['', -24, -4, -2, 4, 48, -8, -4, -2, -24, 4, -4, -4]",208552,[],mouselab-mdp
11,14,"[1218, 2097, 3177]","['left', 'left', 'up']",training,"['0', '9', '10', '11']","{'click': {'state': {'target': [], 'time': []}, 'edge': {'target': [], 'time': []}}, 'mouseover': {'state': {'target': ['11'], 'time': [None]}, 'edge': {'target': [], 'time': []}}, 'mouseout': {'state': {'target': [], 'time': []}, 'edge': {'target': [], 'time': []}}}","[-24, 8, -4]","[407.2350000496954, 1290.8100000349805, 1216.260000015609]",1,[],-20,"[None, None, None]","['', 24, 4, -2, 4, -24, -8, -2, -4, -24, 8, -4, -2]",212676,[],mouselab-mdp
11,15,"[918, 1761, 4010]","['right', 'right', 'down']",training,"['0', '5', '6', '8']","{'click': {'state': {'target': [], 'time': []}, 'edge': {'target': [], 'time': []}}, 'mouseover': {'state': {'target': ['11'], 'time': [None]}, 'edge': {'target': [], 'time': []}}, 'mouseout': {'state': {'target': ['11'], 'time': [3624]}, 'edge': {'target': [], 'time': []}}}","[24, 8, -4]","[368.1250000372529, 564.684999990277, 916.3899999111891]",1,[],28,"[None, None, None]","['', 24, -8, 2, -2, 24, 8, -4, -4, 48, -8, -2, 2]",217457,[],mouselab-mdp
11,16,"[1478, 3471, 4390]","['up', 'up', 'left']",training,"['0', '1', '2', '4']","{'click': {'state': {'target': [], 'time': []}, 'edge': {'target': [], 'time': []}}, 'mouseover': {'state': {'target': [], 'time': []}, 'edge': {'target': [], 'time': []}}, 'mouseout': {'state': {'target': [], 'time': []}, 'edge': {'target': [], 'time': []}}}","[-24, 4, 2]","[325.3699999768287, 1739.7099999943748, 1475.9649999905378]",1,[],-18,"[None, None, None]","['', -24, 4, -4, 2, 24, 4, 2, 4, 48, -4, -2, -2]",221569,[],mouselab-mdp
11,17,"[1223, 2138, 2983]","['up', 'up', 'right']",training,"['0', '1', '2', '3']","{'click': {'state': {'target': [], 'time': []}, 'edge': {'target': [], 'time': []}}, 'mouseover': {'state': {'target': [], 'time': []}, 'edge': {'target': [], 'time': []}}, 'mouseout': {'state': {'target': [], 'time': []}, 'edge': {'target': [], 'time': []}}}","[24, -8, 2]","[1479.1350000305101, 400.7349999155849, 1222.0450000604615]",1,[],18,"[None, None, None]","['', 24, -8, 2, -2, 48, -4, -4, -2, 24, -4, 4, -4]",226508,[],mouselab-mdp
11,18,"[1096, 1946, 3062]","['right', 'right', 'down']",training,"['0', '5', '6', '8']","{'click': {'state': {'target': [], 'time': []}, 'edge': {'target': [], 'time': []}}, 'mouseover': {'state': {'target': ['2'], 'time': [884]}, 'edge': {'target': [], 'time': []}}, 'mouseout': {'state': {'target': ['2'], 'time': [1133]}, 'edge': {'target': [], 'time': []}}}","[-24, 8, -4]","[377.6399999624118, 323.52500001434237, 1094.2400000058115]",1,[],-20,"[None, None, None]","['', 24, -8, 4, -4, -24, 8, 2, -4, -24, 4, 4, 2]",231856,[],mouselab-mdp
11,19,"[788, 1610, 2597]","['left', 'left', 'up']",training,"['0', '9', '10', '11']","{'click': {'state': {'target': [], 'time': []}, 'edge': {'target': [], 'time': []}}, 'mouseover': {'state': {'target': [], 'time': []}, 'edge': {'target': [], 'time': []}}, 'mouseout': {'state': {'target': [], 'time': []}, 'edge': {'target': [], 'time': []}}}","[48, 4, -4]","[326.1049999855459, 608.3449999568984, 785.8949999790639]",1,[],48,"[None, None, None]","['', 24, 8, 2, 4, 24, 8, -2, -4, 48, 4, -4, -2]",235772,[],mouselab-mdp
11,20,"[967, 1747, 2553]","['left', 'left', 'down']",training,"['0', '9', '10', '12']","{'click': {'state': {'target': [], 'time': []}, 'edge': {'target': [], 'time': []}}, 'mouseover': {'state': {'target': [], 'time': []}, 'edge': {'target': [], 'time': []}}, 'mouseout': {'state': {'target': [], 'time': []}, 'edge': {'target': [], 'time': []}}}","[-24, 4, 2]","[328.1999999890104, 467.33000001404434, 964.9849999696016]",1,[],-18,"[None, None, None]","['', -48, 8, 4, 2, 24, 8, -2, -4, -24, 4, 4, 2]",239716,[],mouselab-mdp
11,21,"[995, 1745, 2824]","['right', 'right', 'up']",training,"['0', '5', '6', '7']","{'click': {'state': {'target': [], 'time': []}, 'edge': {'target': [], 'time': []}}, 'mouseover': {'state': {'target': [], 'time': []}, 'edge': {'target': [], 'time': []}}, 'mouseout': {'state': {'target': [], 'time': []}, 'edge': {'target': [], 'time': []}}}","[-24, 8, -4]","[257.48000002931803, 296.20999994222075, 993.0849999655038]",1,[],-20,"[None, None, None]","['', -48, 4, -4, -4, -24, 8, -4, 2, -48, -8, 4, -2]",243155,[],mouselab-mdp
11,22,"[1000, 1738, 2794]","['up', 'up', 'right']",training,"['0', '1', '2', '3']","{'click': {'state': {'target': [], 'time': []}, 'edge': {'target': [], 'time': []}}, 'mouseover': {'state': {'target': [], 'time': []}, 'edge': {'target': [], 'time': []}}, 'mouseout': {'state': {'target': [], 'time': []}, 'edge': {'target': [], 'time': []}}}","[-48, 8, -2]","[220.54500004742295, 566.6150000179186, 998.9249999634922]",1,[],-42,"[None, None, None]","['', -48, 8, -2, -2, 48, -8, 2, -4, -48, -8, 4, 4]",246550,[],mouselab-mdp
11,23,"[2368, 3226, 4270]","['left', 'left', 'down']",training,"['0', '9', '10', '12']","{'click': {'state': {'target': [], 'time': []}, 'edge': {'target': [], 'time': []}}, 'mouseover': {'state': {'target': [], 'time': []}, 'edge': {'target': [], 'time': []}}, 'mouseout': {'state': {'target': [], 'time': []}, 'edge': {'target': [], 'time': []}}}","[-48, 8, 4]","[232.19500004779547, 555.5050000548363, 2365.8500000601634]",1,[],-36,"[None, None, None]","['', -48, -8, 4, -2, -48, 8, -4, -4, -48, 8, -2, 4]",250148,[],mouselab-mdp
11,24,"[1173, 2246, 3146]","['left', 'left', 'up']",training,"['0', '9', '10', '11']","{'click': {'state': {'target': [], 'time': []}, 'edge': {'target': [], 'time': []}}, 'mouseover': {'state': {'target': [], 'time': []}, 'edge': {'target': [], 'time': []}}, 'mouseout': {'state': {'target': [], 'time': []}, 'edge': {'target': [], 'time': []}}}","[24, 8, -2]","[359.0550000080839, 536.4049999043345, 1170.6250000279397]",1,[],30,"[None, None, None]","['', 48, -4, 4, 2, -48, -8, 4, 2, 24, 8, -2, 2]",253939,[],mouselab-mdp
11,25,"[901, 2017, 3317]","['right', 'right', 'down']",training,"['0', '5', '6', '8']","{'click': {'state': {'target': [], 'time': []}, 'edge': {'target': [], 'time': []}}, 'mouseover': {'state': {'target': [], 'time': []}, 'edge': {'target': [], 'time': []}}, 'mouseout': {'state': {'target': [], 'time': []}, 'edge': {'target': [], 'time': []}}}","[-48, -4, -4]","[564.0999999595806, 383.28499998897314, 899.1099999984726]",1,[],-56,"[None, None, None]","['', -48, 4, -2, -4, -48, -4, -2, -4, -48, 8, 2, 2]",259001,[],mouselab-mdp
11,26,"[1337, 2388, 3224]","['right', 'right', 'up']",training,"['0', '5', '6', '7']","{'click': {'state': {'target': [], 'time': []}, 'edge': {'target': [], 'time': []}}, 'mouseover': {'state': {'target': [], 'time': []}, 'edge': {'target': [], 'time': []}}, 'mouseout': {'state': {'target': [], 'time': []}, 'edge': {'target': [], 'time': []}}}","[-24, -8, 2]","[605.915000080131, 806.2749999808148, 1335.880000027828]",1,[],-30,"[None, None, None]","['', 48, 4, -4, -4, -24, -8, 2, 2, 24, -4, 4, -2]",263068,[],mouselab-mdp
11,27,"[792, 1738, 4102]","['up', 'up', 'right']",training,"['0', '1', '2', '3']","{'click': {'state': {'target': [], 'time': []}, 'edge': {'target': [], 'time': []}}, 'mouseover': {'state': {'target': [], 'time': []}, 'edge': {'target': [], 'time': []}}, 'mouseout': {'state': {'target': [], 'time': []}, 'edge': {'target': [], 'time': []}}}","[24, 4, -4]","[547.3700000438839, 318.16500006243587, 790.3250000672415]",1,[],24,"[None, None, None]","['', 24, 4, -4, 2, 24, 8, 2, 4, -48, -4, -4, -4]",267328,[],mouselab-mdp
11,28,"[1875, 3038, 4569]","['left', 'left', 'up']",training,"['0', '9', '10', '11']","{'click': {'state': {'target': [], 'time': []}, 'edge': {'target': [], 'time': []}}, 'mouseover': {'state': {'target': [], 'time': []}, 'edge': {'target': [], 'time': []}}, 'mouseout': {'state': {'target': [], 'time': []}, 'edge': {'target': [], 'time': []}}}","[24, -4, -2]","[451.3499999884516, 1845.4549999441952, 1873.5999999335036]",1,[],18,"[None, None, None]","['', -48, 4, -2, -4, -48, 4, -2, 4, 24, -4, -2, -2]",271545,[],mouselab-mdp
11,29,"[1885, 2726, 4045]","['up', 'up', 'left']",training,"['0', '1', '2', '4']","{'click': {'state': {'target': [], 'time': []}, 'edge': {'target': [], 'time': []}}, 'mouseover': {'state': {'target': [], 'time': []}, 'edge': {'target': [], 'time': []}}, 'mouseout': {'state': {'target': [], 'time': []}, 'edge': {'target': [], 'time': []}}}","[24, 4, -4]","[650.3650000086054, 1016.2550000241026, 1883.5099999560043]",1,[],24,"[None, None, None]","['', 24, 4, -4, -4, 24, -4, -2, 4, 24, -8, -4, 2]",276593,[],mouselab-mdp
11,30,"[1104, 2442, 3462]","['right', 'right', 'down']",training,"['0', '5', '6', '8']","{'click': {'state': {'target': [], 'time': []}, 'edge': {'target': [], 'time': []}}, 'mouseover': {'state': {'target': [], 'time': []}, 'edge': {'target': [], 'time': []}}, 'mouseout': {'state': {'target': [], 'time': []}, 'edge': {'target': [], 'time': []}}}","[24, -4, -4]","[323.1949999462813, 808.2749999593943, 1102.3550000973046]",1,[],16,"[None, None, None]","['', -24, -4, 4, -2, 24, -4, 2, -4, -48, -4, 4, -4]",282105,[],mouselab-mdp
11,31,"[2749, 3857, 4871]","['right', 'right', 'up']",training,"['0', '5', '6', '7']","{'click': {'state': {'target': [], 'time': []}, 'edge': {'target': [], 'time': []}}, 'mouseover': {'state': {'target': [], 'time': []}, 'edge': {'target': [], 'time': []}}, 'mouseout': {'state': {'target': [], 'time': []}, 'edge': {'target': [], 'time': []}}}","[-24, 8, -2]","[831.8950000684708, 502.4299999931827, 2747.2650000127032]",1,[],-18,"[None, None, None]","['', 24, 4, -2, -4, -24, 8, -2, -4, -24, 4, 4, -4]",287133,[],mouselab-mdp
11,32,"[902, 1900, 2731]","['up', 'up', 'right']",training,"['0', '1', '2', '3']","{'click': {'state': {'target': [], 'time': []}, 'edge': {'target': [], 'time': []}}, 'mouseover': {'state': {'target': [], 'time': []}, 'edge': {'target': [], 'time': []}}, 'mouseout': {'state': {'target': [], 'time': []}, 'edge': {'target': [], 'time': []}}}","[48, 4, -2]","[598.9550000522286, 497.0200000097975, 899.9799999874085]",1,[],50,"[None, None, None]","['', 48, 4, -2, -2, -48, -8, 2, -2, 24, 8, -2, -4]",291414,[],mouselab-mdp
11,33,"[1466, 2505, 4122]","['left', 'left', 'down']",training,"['0', '9', '10', '12']","{'click': {'state': {'target': [], 'time': []}, 'edge': {'target': [], 'time': []}}, 'mouseover': {'state': {'target': ['4'], 'time': [None]}, 'edge': {'target': [], 'time': []}}, 'mouseout': {'state': {'target': [], 'time': []}, 'edge': {'target': [], 'time': []}}}","[-24, 8, -4]","[506.6499999957159, 322.5300000049174, 1464.3749999813735]",1,[],-20,"[None, None, None]","['', 24, 4, 4, 4, 24, -4, -2, -2, -24, 8, -2, -4]",297515,[],mouselab-mdp
11,34,"[823, 1754, 2815]","['up', 'up', 'left']",training,"['0', '1', '2', '4']","{'click': {'state': {'target': [], 'time': []}, 'edge': {'target': [], 'time': []}}, 'mouseover': {'state': {'target': ['4'], 'time': [None]}, 'edge': {'target': [], 'time': []}}, 'mouseout': {'state': {'target': ['4'], 'time': [846]}, 'edge': {'target': [], 'time': []}}}","[24, -8, 4]","[521.0449999431148, 1103.499999968335, 821.2999999523163]",1,[],20,"[None, None, None]","['', 24, -8, 2, 4, 48, -8, -2, -2, -24, -4, 2, 4]",301164,[],mouselab-mdp
13,0,"[59014, 62131, 66020]","['right', 'right', 'up']",training,"['0', '5', '6', '7']","{'click': {'state': {'target': ['1', '2', '3', '5', '6', '7', '8', '9', '10', '11', '12', '4'], 'time': [6837, 13213, 16808, 22764, 26889, 29664, 31709, 34296, 37664, 39760, 41676, 43457]}, 'edge': {'target': [], 'time': []}}, 'mouseover': {'state': {'target': ['1', '2', '3', '7', '1', '2', '3', '4', '4', '5', '4', '5', '6', '7', '8', '0', '9', '10', '11', '12', '4', '0', '0', '0', '0', '0'], 'time': [934, 984, 1017, 1199, 5956, 11082, 14315, 19598, 19899, 20480, 21131, 21901, 26146, 28746, 30696, 32729, 33412, 35879, 38978, 40961, 42929, 47727, 52578, 52745, 52795, 56728]}, 'edge': {'target': [], 'time': []}}, 'mouseout': {'state': {'target': ['1', '2', '3', '7', '1', '1', '2', '3', '2', '4', '4', '5', '1', '4', '2', '5', '6', '7', '6', '8', '0', '9', '10', '11', '10', '12', '10', '4', '1', '6', '8', '5', '0', '0', '0', '0', '0'], 'time': [966, 999, 1050, 1664, 7999, 10873, 14231, 19548, 19581, 19631, 19916, 21048, 21097, 21797, 21834, 26018, 28663, 30631, 30666, 32645, 33196, 35828, 38945, 40694, 40894, 42829, 42862, 45461, 45511, 45594, 46977, 47178, 48794, 52596, 52763, 52844, 56794]}, 'edge': {'target': [], 'time': []}}}","[48, -8, -4]","[157428.1450000126, 41455.400000093505, 71225.64000007696]",1,0,24,"[None, None, None]","['', -24, -4, -2, 4, 48, -8, -4, -2, -24, 4, -4, -4]",157444,[],mouselab-mdp
13,1,"[11323, 20295, 22605]","['left', 'left', 'up']",training,"['0', '9', '10', '11']","{'click': {'state': {'target': ['9'], 'time': [8864]}, 'edge': {'target': [], 'time': []}}, 'mouseover': {'state': {'target': ['0', '1', '9'], 'time': [None, 5553, 8113]}, 'edge': {'target': [], 'time': []}}, 'mouseout': {'state': {'target': ['0', '1', '9', '10', '9', '9', '9'], 'time': [5416, 7886, 12736, 15659, 16219, 16391, 18369]}, 'edge': {'target': [], 'time': []}}}","[-48, -8, -4]","[18025.44999984093, 59001.51000008918, 2611.7150001227856]",1,[],-61,"[None, None, None]","['', 24, -8, -4, -2, 48, -4, -4, 2, -48, -8, -4, -4]",198910,[],mouselab-mdp
13,2,"[4586, 10417, 12312]","['up', 'up', 'right']",training,"['0', '1', '2', '3']","{'click': {'state': {'target': [], 'time': []}, 'edge': {'target': [], 'time': []}}, 'mouseover': {'state': {'target': ['10', '9'], 'time': [None, 2915]}, 'edge': {'target': [], 'time': []}}, 'mouseout': {'state': {'target': ['10'], 'time': [2766]}, 'edge': {'target': [], 'time': []}}}","[-48, 8, 4]","[3368.0449998937547, 11314.27999981679, 8451.00500015542]",1,[],-36,"[None, None, None]","['', -48, 8, 4, 2, 24, 8, -2, -4, -24, 4, 4, 2]",276897,[],mouselab-mdp
13,3,"[1823, 4497, 8474]","['left', 'left', 'up']",training,"['0', '9', '10', '11']","{'click': {'state': {'target': [], 'time': []}, 'edge': {'target': [], 'time': []}}, 'mouseover': {'state': {'target': ['9'], 'time': [None]}, 'edge': {'target': [], 'time': []}}, 'mouseout': {'state': {'target': [], 'time': []}, 'edge': {'target': [], 'time': []}}}","[48, 4, -4]","[1793.515000026673, 4568.479999899864, 5324.289999902248]",1,[],48,"[None, None, None]","['', 24, 8, 2, 4, 24, 8, -2, -4, 48, 4, -4, -2]",294930,[],mouselab-mdp
13,4,"[2149, 4724, 6593]","['right', 'right', 'down']",training,"['0', '5', '6', '8']","{'click': {'state': {'target': [], 'time': []}, 'edge': {'target': [], 'time': []}}, 'mouseover': {'state': {'target': ['9'], 'time': [None]}, 'edge': {'target': [], 'time': []}}, 'mouseout': {'state': {'target': [], 'time': []}, 'edge': {'target': [], 'time': []}}}","[-24, -8, 2]","[1386.9200001936406, 1811.350000090897, 2164.1649999655783]",1,[],-30,"[None, None, None]","['', -48, -8, -4, -2, -24, -8, -4, 2, 24, -8, 2, 4]",365986,[],mouselab-mdp
13,5,"[1168, 3219, 5125]","['left', 'left', 'up']",training,"['0', '9', '10', '11']","{'click': {'state': {'target': [], 'time': []}, 'edge': {'target': [], 'time': []}}, 'mouseover': {'state': {'target': ['9'], 'time': [None]}, 'edge': {'target': [], 'time': []}}, 'mouseout': {'state': {'target': [], 'time': []}, 'edge': {'target': [], 'time': []}}}","[48, 8, -2]","[3470.2200000174344, 2140.974999871105, 2061.3049999810755]",1,[],54,"[None, None, None]","['', 24, 4, -2, -2, -24, -4, 2, -4, 48, 8, -2, -2]",392739,[],mouselab-mdp
13,6,"[2575, 4320, 6751]","['up', 'up', 'right']",training,"['0', '1', '2', '3']","{'click': {'state': {'target': [], 'time': []}, 'edge': {'target': [], 'time': []}}, 'mouseover': {'state': {'target': ['9'], 'time': [None]}, 'edge': {'target': [], 'time': []}}, 'mouseout': {'state': {'target': [], 'time': []}, 'edge': {'target': [], 'time': []}}}","[24, 4, -2]","[1365.019999910146, 1161.6250001825392, 1543.0799999739975]",1,[],26,"[None, None, None]","['', 24, 4, -2, -4, -48, 4, -2, -2, 48, -4, -2, -2]",407931,[],mouselab-mdp
13,7,"[1155, 4487, 6528]","['right', 'right', 'down']",training,"['0', '5', '6', '8']","{'click': {'state': {'target': [], 'time': []}, 'edge': {'target': [], 'time': []}}, 'mouseover': {'state': {'target': ['9'], 'time': [None]}, 'edge': {'target': [], 'time': []}}, 'mouseout': {'state': {'target': [], 'time': []}, 'edge': {'target': [], 'time': []}}}","[-48, 8, -4]","[1397.3550000227988, 2569.9749998748302, 1223.509999923408]",1,[],-44,"[None, None, None]","['', -48, 4, 2, -4, -48, 8, -4, -4, 48, 8, -2, -2]",420003,[],mouselab-mdp
13,8,"[1613, 2319, 4586]","['up', 'up', 'right']",training,"['0', '1', '2', '3']","{'click': {'state': {'target': [], 'time': []}, 'edge': {'target': [], 'time': []}}, 'mouseover': {'state': {'target': ['9'], 'time': [None]}, 'edge': {'target': [], 'time': []}}, 'mouseout': {'state': {'target': [], 'time': []}, 'edge': {'target': [], 'time': []}}}","[-48, 4, 2]","[1922.410000115633, 1149.110000114888, 2812.625000020489]",1,[],-42,"[None, None, None]","['', -48, 4, 2, 2, 48, -8, -4, 2, 48, -4, 2, 4]",429131,[],mouselab-mdp
13,9,"[1621, 3487, 6873]","['left', 'left', 'up']",training,"['0', '9', '10', '11']","{'click': {'state': {'target': [], 'time': []}, 'edge': {'target': [], 'time': []}}, 'mouseover': {'state': {'target': ['9'], 'time': [None]}, 'edge': {'target': [], 'time': []}}, 'mouseout': {'state': {'target': [], 'time': []}, 'edge': {'target': [], 'time': []}}}","[24, -8, 4]","[1537.0650000404567, 1606.065000174567, 194.66000003740191]",1,[],20,"[None, None, None]","['', -24, -4, -4, 2, -48, -4, -2, -4, 24, -8, 4, -4]",436501,[],mouselab-mdp
13,10,"[2870, 4276, 6153]","['up', 'up', 'right']",training,"['0', '1', '2', '3']","{'click': {'state': {'target': [], 'time': []}, 'edge': {'target': [], 'time': []}}, 'mouseover': {'state': {'target': ['9'], 'time': [None]}, 'edge': {'target': [], 'time': []}}, 'mouseout': {'state': {'target': [], 'time': []}, 'edge': {'target': [], 'time': []}}}","[48, -4, 4]","[1743.7999998219311, 1611.0750001389533, 1354.6249999199063]",1,[],48,"[None, None, None]","['', 48, -4, 4, 2, -48, -8, 4, 2, 24, 8, -2, 2]",446309,[],mouselab-mdp
13,11,"[1303, 2438, 4333]","['up', 'up', 'left']",training,"['0', '1', '2', '4']","{'click': {'state': {'target': [], 'time': []}, 'edge': {'target': [], 'time': []}}, 'mouseover': {'state': {'target': ['9'], 'time': [None]}, 'edge': {'target': [], 'time': []}}, 'mouseout': {'state': {'target': [], 'time': []}, 'edge': {'target': [], 'time': []}}}","[24, 8, 4]","[2872.724999906495, 2864.4000000786036, 879.3600001372397]",1,[],36,"[None, None, None]","['', 24, 8, -4, 4, 24, -8, -4, -2, 48, -4, 4, 4]",454797,[],mouselab-mdp
