,pid,trial_index,action_times,actions,block,path,queries,rewards,rt,condition,bonus,score,simulation_mode,state_rewards,time_elapsed,trial_time,trial_type,run,trial_id,num_nodes,num_early,num_middle,num_late,num_clicks
0,2,0,"[14076, 14776, 15672]","['up', 'up', 'right']",training,"['1', '2', '3']","{'click': {'state': {'target': ['1', '5', '9', '2', '10', '3', '4'], 'time': [3011, 4642, 5242, 7834, 8722, 10578, 11418]}, 'edge': {'target': [], 'time': []}}, 'mouseover': {'state': {'target': ['0', '1', '5', '0', '9', '0', '2', '10', '3', '4'], 'time': [2311, 2626, 4379, 4995, 5064, 6581, 7035, 8516, 10201, 11220]}, 'edge': {'target': [], 'time': []}}, 'mouseout': {'state': {'target': ['0', '1', '5', '0', '9', '0', '1', '2', '10', '2', '2', '3', '2', '4'], 'time': [2494, 4328, 4963, 5012, 5881, 6964, 7014, 8015, 9217, 9967, 10118, 10935, 11168, 12186]}, 'edge': {'target': [], 'time': []}}}","[10, 5, 5]","[74560.77499999992, 25930.409999999945, 14074.179999999615]",2,0,13,"[None, None, None]","['', 10, 5, 5, -10, -10, 10, 5, 5, 10, -5, -10, -10]",74562,[],mouselab-mdp,c1.1,2677707256680226296,7,0,0,0,0
1,2,1,"[8798, 9430, 10046]","['right', 'right', 'down']",training,"['5', '6', '8']","{'click': {'state': {'target': ['9', '1', '5', '6', '10', '8', '7'], 'time': [1616, 2128, 2800, 5560, 6280, 7248, 7720]}, 'edge': {'target': [], 'time': []}}, 'mouseover': {'state': {'target': ['1', '9', '1', '5', '6', '10', '10', '8', '7'], 'time': [None, 1326, 1909, 2459, 5314, 5780, 6114, 7064, 7582]}, 'edge': {'target': [], 'time': []}}, 'mouseout': {'state': {'target': ['1', '9', '1', '5', '6', '5', '10', '10', '8', '6', '7', '9', '10'], 'time': [1108, 1775, 2361, 3428, 5679, 5712, 5829, 6715, 7382, 7431, 14823, 15157, 15174]}, 'edge': {'target': [], 'time': []}}}","[10, 10, 5]","[202.09500000010303, 398.11000000010245, 8796.929999999964]",2,0.54,18,"[None, None, None]","['', -10, -10, -10, 10, 10, 10, -10, 5, 5, -10, -5, 10]",100499,[],mouselab-mdp,c1.1,-6295193560893533809,7,0,0,0,0
2,2,2,"[21445, 22332, 23173]","['up', 'up', 'right']",training,"['1', '2', '3']","{'click': {'state': {'target': ['9', '1', '5', '10', '11', '12', '2', '4', '3', '6', '7', '8'], 'time': [1839, 2487, 2879, 5023, 6439, 7086, 13359, 15151, 15942, 19078, 19862, 20206]}, 'edge': {'target': [], 'time': []}}, 'mouseover': {'state': {'target': ['9', '1', '5', '0', '10', '11', '12', '4', '2', '4', '3', '7', '6', '7', '8'], 'time': [1405, 2289, 2723, 4341, 4657, 5742, 6743, 10381, 13117, 13918, 15803, 18357, 18805, 19690, 20058]}, 'edge': {'target': [], 'time': []}}, 'mouseout': {'state': {'target': ['9', '1', '5', '0', '9', '10', '11', '10', '12', '9', '4', '2', '4', '2', '3', '7', '6', '7', '6', '8'], 'time': [2256, 2657, 4292, 4375, 4491, 5677, 6627, 6677, 7828, 10048, 13033, 13834, 15386, 15486, 16521, 18773, 19641, 19991, 20041, 24829]}, 'edge': {'target': [], 'time': []}}}","[-10, 10, 10]","[127.31999999959953, 125.8499999998894, 21444.010000000155]",2,[],-2,"[None, None, None]","['', -10, 10, 10, 5, -10, -10, 10, 5, -5, 5, 10, -10]",118575,[],mouselab-mdp,c1.1,5437414725336129514,12,0,0,0,0
3,2,3,"[39393, 40807, 41423]","['up', 'up', 'right']",training,"['1', '2', '3']","{'click': {'state': {'target': ['1', '9', '5', '6', '10', '2', '4', '3', '7', '8', '11', '12'], 'time': [17991, 18748, 19228, 22337, 22977, 23672, 25975, 26638, 27862, 28566, 29421, 30141]}, 'edge': {'target': [], 'time': []}}, 'mouseover': {'state': {'target': ['5', '0', '1', '9', '0', '5', '6', '0', '10', '2', '4', '3', '7', '8', '0', '11', '11', '12'], 'time': [17639, 17722, 17839, 18456, 18955, 19039, 20772, 22573, 22657, 23456, 24591, 26391, 27158, 28308, 28993, 29043, 29260, 30044]}, 'edge': {'target': [], 'time': []}}, 'mouseout': {'state': {'target': ['5', '0', '1', '9', '0', '5', '6', '5', '0', '9', '10', '2', '4', '2', '3', '7', '6', '8', '0', '9', '11', '11', '10', '12'], 'time': [17671, 17739, 18372, 18923, 19005, 19538, 22523, 22556, 22590, 22640, 23391, 24508, 26224, 26357, 27092, 28259, 28292, 28944, 29010, 29027, 29177, 29526, 29593, 30328]}, 'edge': {'target': [], 'time': []}}}","[5, -10, -5]","[388.554999999993, 344.39500000007683, 39406.28999999989]",2,[],-22,"[None, None, None]","['', 5, -10, -5, -10, 5, -10, -5, -10, 5, -10, -5, -5]",143838,[],mouselab-mdp,c1.1,-3161758675468624755,12,0,0,0,0
4,2,4,"[10150, 10902, 11550]","['up', 'up', 'right']",training,"['1', '2', '3']","{'click': {'state': {'target': ['1', '9', '5', '2', '6', '4', '3'], 'time': [1177, 1625, 2040, 3128, 3857, 5416, 8591]}, 'edge': {'target': [], 'time': []}}, 'mouseover': {'state': {'target': ['0', '0', '1', '9', '0', '5', '2', '6', '4', '3', '3'], 'time': [716, 748, 933, 1449, 1866, 1901, 2951, 3685, 5086, 6137, 8391]}, 'edge': {'target': [], 'time': []}}, 'mouseout': {'state': {'target': ['0', '0', '1', '9', '0', '5', '1', '2', '6', '1', '4', '2', '3', '6', '6', '3', '3'], 'time': [733, 765, 1367, 1818, 1884, 2283, 2819, 3285, 4753, 4853, 5787, 5887, 7372, 7638, 8322, 12544, 12628]}, 'edge': {'target': [], 'time': []}}}","[10, -10, 10]","[921.4849999998405, 119.80499999981839, 10150.2899999996]",2,[],3,"[None, None, None]","['', 10, -10, 10, 5, 5, -10, -10, 10, -10, -5, 5, 10]",174046,[],mouselab-mdp,c1.1,-7479633459398711011,7,0,0,0,0
5,2,5,"[7993, 8648, 9320]","['left', 'left', 'up']",training,"['9', '10', '11']","{'click': {'state': {'target': ['9', '1', '5', '10', '11'], 'time': [1179, 1674, 2058, 4562, 6386]}, 'edge': {'target': [], 'time': []}}, 'mouseover': {'state': {'target': ['9', '1', '5', '0', '10', '11', '12'], 'time': [986, 1536, 1937, 3572, 3656, 5858, 6859]}, 'edge': {'target': [], 'time': []}}, 'mouseout': {'state': {'target': ['9', '1', '5', '0', '9', '10', '11', '10', '12'], 'time': [1337, 1838, 3556, 3606, 3639, 5625, 6726, 6826, 10547]}, 'edge': {'target': [], 'time': []}}}","[-5, 10, 10]","[257.20000000001164, 155.15999999977066, 7991.619999999792]",2,[],10,"[None, None, None]","['', -10, -10, 5, -10, -10, 5, -10, -10, -5, 10, 10, 5]",218284,[],mouselab-mdp,c1.1,-145900735877221312,5,0,0,0,0
6,2,6,"[6891, 7874, 8482]","['up', 'up', 'left']",training,"['1', '2', '4']","{'click': {'state': {'target': ['9', '1', '5', '2', '4', '3'], 'time': [1181, 1620, 2068, 4196, 5012, 5412]}, 'edge': {'target': [], 'time': []}}, 'mouseover': {'state': {'target': ['9', '1', '5', '4', '2', '4', '3'], 'time': [1027, 1511, 1911, 3329, 3980, 4863, 5264]}, 'edge': {'target': [], 'time': []}}, 'mouseout': {'state': {'target': ['9', '1', '5', '1', '4', '2', '4', '2', '3', '5'], 'time': [1360, 1811, 2761, 2829, 3897, 4814, 5164, 5248, 11104, 11188]}, 'edge': {'target': [], 'time': []}}}","[10, -5, 10]","[152.52000000007683, 173.65999999991618, 6889.5299999999115]",2,[],9,"[None, None, None]","['', 10, -5, -5, 10, 5, -5, -10, 10, 5, 10, -5, 10]",232553,[],mouselab-mdp,c1.1,1017601537737615534,6,0,0,0,0
7,2,7,"[13505, 14176, 14800]","['up', 'up', 'left']",training,"['1', '2', '4']","{'click': {'state': {'target': ['9', '1', '5', '7', '8', '6', '3', '4'], 'time': [5788, 6218, 6938, 8170, 8682, 9530, 11594, 12066]}, 'edge': {'target': [], 'time': []}}, 'mouseover': {'state': {'target': ['9', '10', '9', '1', '5', '6', '7', '6', '8', '6', '3', '2', '4'], 'time': [4200, 5000, 5250, 6001, 6752, 7686, 7987, 8338, 8369, 9271, 11457, 11774, 11873]}, 'edge': {'target': [], 'time': []}}, 'mouseout': {'state': {'target': ['9', '10', '9', '1', '5', '6', '7', '6', '8', '6', '5', '3', '2', '4', '0'], 'time': [4749, 5234, 5900, 6419, 7637, 7936, 8320, 8353, 9237, 10305, 11156, 11757, 11824, 16430, 16528]}, 'edge': {'target': [], 'time': []}}}","[5, -5, 10]","[488.85000000018044, 113.06500000000233, 13503.535000000265]",2,[],2,"[None, None, None]","['', 5, -5, 5, 10, 10, -10, -5, -5, 5, -10, 5, 10]",244552,[],mouselab-mdp,c1.1,287659273517348342,8,0,0,0,0
8,2,8,"[12470, 13157, 13773]","['up', 'up', 'left']",training,"['1', '2', '4']","{'click': {'state': {'target': ['9', '1', '5', '7', '8', '3', '4'], 'time': [6473, 7047, 7695, 8967, 9367, 10943, 11318]}, 'edge': {'target': [], 'time': []}}, 'mouseover': {'state': {'target': ['5', '5', '9', '1', '5', '7', '6', '8', '6', '3', '2', '4'], 'time': [966, 1048, 6270, 6872, 7656, 8640, 9107, 9157, 9793, 10809, 11093, 11143]}, 'edge': {'target': [], 'time': []}}, 'mouseout': {'state': {'target': ['5', '5', '9', '1', '5', '5', '7', '6', '8', '6', '3', '2', '4', '0'], 'time': [998, 1065, 6821, 7238, 8199, 8573, 9091, 9141, 9774, 10509, 11076, 11126, 15280, 15364]}, 'edge': {'target': [], 'time': []}}}","[-5, -5, 10]","[182.94500000000698, 121.89499999972759, 12468.899999999849]",2,[],-7,"[None, None, None]","['', -5, -5, 5, 10, 10, -10, -10, -10, -10, 10, 10, 10]",257887,[],mouselab-mdp,c1.1,3866759347579099958,7,0,0,0,0
9,2,9,"[11471, 12062, 12686]","['right', 'right', 'up']",training,"['5', '6', '7']","{'click': {'state': {'target': ['12', '11', '5', '9', '1', '8', '7'], 'time': [1809, 2312, 4464, 5296, 5744, 7824, 8616]}, 'edge': {'target': [], 'time': []}}, 'mouseover': {'state': {'target': ['10', '12', '10', '11', '10', '9', '0', '5', '6', '5', '0', '9', '1', '8', '6', '7', '7'], 'time': [1336, 1587, 1986, 2186, 3221, 3488, 3638, 3722, 4022, 4322, 4739, 5057, 5623, 7642, 7976, 8010, 8476]}, 'edge': {'target': [], 'time': []}}, 'mouseout': {'state': {'target': ['10', '12', '10', '11', '10', '9', '0', '5', '6', '5', '0', '9', '1', '5', '8', '6', '7', '7', '7'], 'time': [1535, 1953, 2036, 3171, 3438, 3572, 3670, 3756, 4255, 4689, 4806, 5523, 7258, 7359, 7943, 7992, 8076, 14496, 14550]}, 'edge': {'target': [], 'time': []}}}","[10, 10, 10]","[194.17999999999302, 125.59499999997206, 11469.680000000168]",2,[],23,"[None, None, None]","['', 5, -10, 5, -5, 10, 10, 10, 10, 10, -10, -10, 5]",276151,[],mouselab-mdp,c1.1,-2168368636003987728,7,0,0,0,0
10,2,10,"[7871, 8455, 9127]","['right', 'right', 'up']",training,"['5', '6', '7']","{'click': {'state': {'target': ['9', '1', '5', '7', '8', '3', '4'], 'time': [1505, 1944, 2384, 3352, 4576, 5792, 6112]}, 'edge': {'target': [], 'time': []}}, 'mouseover': {'state': {'target': ['9', '1', '5', '7', '6', '8', '3', '2', '4'], 'time': [894, 1711, 2211, 3079, 3530, 3579, 5649, 5931, 5965]}, 'edge': {'target': [], 'time': []}}, 'mouseout': {'state': {'target': ['9', '1', '5', '7', '6', '8', '3', '2', '4', '0'], 'time': [1644, 2129, 3046, 3512, 3564, 5314, 5915, 5949, 10420, 10621]}, 'edge': {'target': [], 'time': []}}}","[-10, -5, 10]","[96.64999999996508, 119.79500000010012, 7869.374999999767]",2,[],-12,"[None, None, None]","['', -5, -10, -5, -10, -10, -5, 10, -5, -10, 5, 10, -5]",293342,[],mouselab-mdp,c1.1,-2285879742743491122,7,0,0,0,0
11,2,11,"[5318, 5958, 6630]","['up', 'up', 'left']",training,"['1', '2', '4']","{'click': {'state': {'target': ['9', '1', '5', '3', '4'], 'time': [1728, 2167, 3023, 4087, 4391]}, 'edge': {'target': [], 'time': []}}, 'mouseover': {'state': {'target': ['9', '1', '5', '3', '2', '4'], 'time': [1463, 2014, 2881, 3598, 4217, 4267]}, 'edge': {'target': [], 'time': []}}, 'mouseout': {'state': {'target': ['9', '1', '5', '3', '2', '4', '9'], 'time': [1897, 2481, 3548, 4198, 4249, 8120, 8237]}, 'edge': {'target': [], 'time': []}}}","[5, 5, 10]","[84.55000000004657, 172.03000000020256, 5315.339999999618]",2,[],15,"[None, None, None]","['', 5, 5, 5, 10, -5, -5, 10, 10, -10, 10, 5, -10]",309117,[],mouselab-mdp,c1.1,2087369140992358120,5,0,0,0,0
12,2,12,"[11704, 12280, 13088]","['right', 'right', 'up']",training,"['5', '6', '7']","{'click': {'state': {'target': ['9', '1', '5', '7', '8', '3', '4', '11', '12'], 'time': [1131, 1706, 2369, 3473, 4130, 7609, 7985, 9209, 9657]}, 'edge': {'target': [], 'time': []}}, 'mouseover': {'state': {'target': ['9', '9', '1', '5', '6', '7', '6', '8', '8', '3', '2', '4', '11', '10', '12'], 'time': [649, 965, 1465, 2016, 3017, 3268, 3618, 3651, 4001, 7422, 7789, 7856, 8991, 9392, 9474]}, 'edge': {'target': [], 'time': []}}, 'mouseout': {'state': {'target': ['9', '9', '1', '5', '6', '7', '6', '8', '8', '3', '2', '4', '11', '10', '12', '8'], 'time': [665, 1283, 1966, 2983, 3217, 3601, 3634, 3668, 5204, 7772, 7822, 8873, 9374, 9440, 10259, 14429]}, 'edge': {'target': [], 'time': []}}}","[10, -5, -5]","[138.06500000011874, 175.38999999989755, 11703.094999999856]",2,[],-9,"[None, None, None]","['', -5, -5, 5, -10, 10, -5, -5, -10, -10, -5, 5, -5]",331013,[],mouselab-mdp,c1.1,-6894841345479573840,9,0,0,0,0
13,2,13,"[4453, 5221, 5941]","['right', 'right', 'down']",training,"['5', '6', '8']","{'click': {'state': {'target': ['9', '1', '5', '7', '8'], 'time': [1367, 1767, 2206, 3222, 3599]}, 'edge': {'target': [], 'time': []}}, 'mouseover': {'state': {'target': ['9', '1', '5', '7', '6', '8'], 'time': [1178, 1611, 2061, 2962, 3380, 3429]}, 'edge': {'target': [], 'time': []}}, 'mouseout': {'state': {'target': ['9', '1', '5', '7', '6', '8'], 'time': [1510, 1978, 2896, 3363, 3413, 7567]}, 'edge': {'target': [], 'time': []}}}","[10, -10, 10]","[83.94499999983236, 307.2750000000815, 4452.269999999728]",2,[],5,"[None, None, None]","['', -10, 10, 10, -5, 10, -10, 5, 10, -5, 5, 5, -10]",340379,[],mouselab-mdp,c1.1,-552410915180044019,5,0,0,0,0
14,2,14,"[9742, 10414, 11085]","['right', 'right', 'down']",training,"['5', '6', '8']","{'click': {'state': {'target': ['9', '1', '5', '6', '10', '2', '11', '8'], 'time': [1048, 1415, 2111, 3783, 4599, 5295, 6791, 7575]}, 'edge': {'target': [], 'time': []}}, 'mouseover': {'state': {'target': ['9', '9', '1', '5', '5', '7', '6', '0', '10', '2', '0', '0', '11', '8', '7'], 'time': [734, 867, 1301, 1634, 1968, 2902, 3569, 3953, 4387, 5153, 5955, 6272, 6373, 7423, 8491]}, 'edge': {'target': [], 'time': []}}, 'mouseout': {'state': {'target': ['9', '9', '1', '5', '5', '7', '6', '5', '0', '9', '10', '2', '1', '0', '0', '11', '9', '8', '6', '7', '5'], 'time': [750, 1200, 1584, 1667, 2752, 3536, 3904, 3936, 3971, 4037, 4871, 5838, 5922, 6173, 6290, 6956, 7006, 8374, 8425, 12563, 12662]}, 'edge': {'target': [], 'time': []}}}","[5, 10, 10]","[271.56999999989057, 223.4350000002887, 9740.094999999623]",2,[],17,"[None, None, None]","['', 5, -5, -10, 5, 5, 10, -10, 10, 5, 10, 10, -10]",357282,[],mouselab-mdp,c1.1,-6971508633356900299,8,0,0,0,0
15,2,15,"[5762, 6538, 7170]","['right', 'right', 'down']",training,"['5', '6', '8']","{'click': {'state': {'target': ['9', '1', '5', '7', '8'], 'time': [1341, 1803, 2203, 3339, 4315]}, 'edge': {'target': [], 'time': []}}, 'mouseover': {'state': {'target': ['9', '1', '5', '6', '7', '6', '8'], 'time': [1170, 1638, 2038, 2956, 3155, 3540, 4157]}, 'edge': {'target': [], 'time': []}}, 'mouseout': {'state': {'target': ['9', '1', '5', '6', '7', '6', '8', '8'], 'time': [1538, 1987, 2906, 3122, 3522, 3556, 8564, 8845]}, 'edge': {'target': [], 'time': []}}}","[10, -10, 10]","[167.71999999991385, 173.17999999976018, 5760.035000000265]",2,[],5,"[None, None, None]","['', -5, -10, 10, -5, 10, -10, 10, 10, -5, 10, -5, -10]",387425,[],mouselab-mdp,c1.1,-7536988618031787221,5,0,0,0,0
16,2,16,"[33472, 34056, 34576]","['up', 'up', 'right']",training,"['1', '2', '3']","{'click': {'state': {'target': ['1', '9', '5', '11', '12', '4', '3'], 'time': [28595, 28953, 29377, 30689, 31337, 32153, 32529]}, 'edge': {'target': [], 'time': []}}, 'mouseover': {'state': {'target': ['5', '1', '9', '0', '5', '11', '10', '12', '4', '2', '3'], 'time': [28139, 28221, 28773, 29188, 29240, 30440, 30859, 30942, 31908, 32360, 32442]}, 'edge': {'target': [], 'time': []}}, 'mouseout': {'state': {'target': ['5', '1', '9', '0', '5', '11', '10', '12', '4', '2', '3'], 'time': [28154, 28722, 29173, 29223, 30073, 30858, 30892, 31759, 32325, 32409, 35880]}, 'edge': {'target': [], 'time': []}}}","[5, -10, 10]","[277.4950000002864, 141.15999999968335, 33471.88499999989]",2,[],-2,"[None, None, None]","['', 5, -10, 10, -5, -5, 5, 10, -5, 5, 10, -5, -5]",401616,[],mouselab-mdp,c1.1,-3477899293060009920,7,0,0,0,0
17,2,17,"[10791, 11382, 12006]","['right', 'right', 'up']",training,"['5', '6', '7']","{'click': {'state': {'target': ['9', '1', '5', '7', '8', '3', '4'], 'time': [865, 1208, 1552, 2600, 3312, 6312, 6856]}, 'edge': {'target': [], 'time': []}}, 'mouseover': {'state': {'target': ['9', '1', '5', '7', '6', '8', '8', '3', '2', '4'], 'time': [612, 1030, 1463, 2430, 2747, 2780, 3198, 6184, 6685, 6719]}, 'edge': {'target': [], 'time': []}}, 'mouseout': {'state': {'target': ['9', '1', '5', '5', '7', '6', '8', '8', '3', '2', '4', '1'], 'time': [996, 1396, 2063, 2164, 2713, 2764, 2848, 5835, 6669, 6703, 13426, 13476]}, 'edge': {'target': [], 'time': []}}}","[10, -5, -5]","[92.27499999996508, 28.875, 10788.899999999965]",2,[],-7,"[None, None, None]","['', 5, -5, -10, 5, 10, -5, -5, -10, -5, -10, -5, 10]",411904,[],mouselab-mdp,c1.1,-3907738530445615459,7,0,0,0,0
18,2,18,"[7398, 7965, 8533]","['up', 'up', 'left']",training,"['1', '2', '4']","{'click': {'state': {'target': ['9', '1', '5', '3', '7', '8', '4'], 'time': [824, 1143, 1543, 2895, 4359, 5471, 6447]}, 'edge': {'target': [], 'time': []}}, 'mouseover': {'state': {'target': ['0', '9', '1', '5', '2', '3', '7', '6', '8', '4'], 'time': [521, 638, 972, 1389, 2690, 2791, 4259, 5160, 5226, 6278]}, 'edge': {'target': [], 'time': []}}, 'mouseout': {'state': {'target': ['0', '9', '1', '5', '1', '2', '3', '7', '6', '8', '5', '4'], 'time': [538, 939, 1305, 2224, 2374, 2757, 3591, 5143, 5177, 5760, 5827, 9814]}, 'edge': {'target': [], 'time': []}}}","[10, 5, 10]","[89.86499999993248, 129.52499999979045, 7395.555000000051]",2,[],18,"[None, None, None]","['', 10, 5, 5, 10, 10, 10, 5, -5, 5, 10, 5, 5]",448869,[],mouselab-mdp,c1.1,3632821025587269967,7,0,0,0,0
19,2,19,"[4538, 5178, 5722]","['up', 'up', 'left']",training,"['1', '2', '4']","{'click': {'state': {'target': ['9', '1', '5', '4', '3'], 'time': [1507, 1907, 2324, 3315, 3667]}, 'edge': {'target': [], 'time': []}}, 'mouseover': {'state': {'target': ['9', '1', '5', '4', '2', '3'], 'time': [1219, 1701, 2151, 3136, 3486, 3553]}, 'edge': {'target': [], 'time': []}}, 'mouseout': {'state': {'target': ['9', '1', '5', '1', '4', '2', '3'], 'time': [1634, 2068, 2886, 2986, 3437, 3520, 7224]}, 'edge': {'target': [], 'time': []}}}","[10, -5, 10]","[67.84999999991851, 67.95999999984633, 4536.230000000156]",2,[],10,"[None, None, None]","['', 10, -5, -5, 10, 5, -10, 10, -10, 5, -10, -10, -10]",463525,[],mouselab-mdp,c1.1,3683435731857920434,5,0,0,0,0
20,2,20,"[4591, 5279, 5871]","['right', 'right', 'down']",training,"['5', '6', '8']","{'click': {'state': {'target': ['9', '1', '5', '7', '8'], 'time': [937, 1456, 2304, 3112, 3640]}, 'edge': {'target': [], 'time': []}}, 'mouseover': {'state': {'target': ['9', '1', '5', '7', '6', '8'], 'time': [729, 1314, 2247, 2831, 3315, 3515]}, 'edge': {'target': [], 'time': []}}, 'mouseout': {'state': {'target': ['9', '1', '5', '7', '6', '8'], 'time': [1230, 1697, 2765, 3282, 3415, 7088]}, 'edge': {'target': [], 'time': []}}}","[5, -10, 10]","[137.23000000033062, 46.46000000007916, 4589.150000000256]",2,[],0,"[None, None, None]","['', -5, -10, 5, 10, 5, -10, -10, 10, -10, 5, -5, -5]",517866,[],mouselab-mdp,c1.1,-8177337623937778033,5,0,0,0,0
21,2,21,"[7413, 8004, 8564]","['left', 'left', 'down']",training,"['9', '10', '12']","{'click': {'state': {'target': ['9', '1', '5', '11', '12', '10'], 'time': [991, 1302, 2198, 3318, 4030, 6414]}, 'edge': {'target': [], 'time': []}}, 'mouseover': {'state': {'target': ['9', '1', '5', '10', '11', '10', '12', '12', '10'], 'time': [851, 1135, 2002, 2886, 3169, 3521, 3569, 3737, 6190]}, 'edge': {'target': [], 'time': []}}, 'mouseout': {'state': {'target': ['9', '1', '5', '10', '11', '10', '12', '12', '10'], 'time': [1084, 1519, 2786, 2903, 3504, 3554, 3670, 5572, 9660]}, 'edge': {'target': [], 'time': []}}}","[10, 5, -5]","[191.67500000004657, 99.73500000021886, 7411.269999999669]",2,[],4,"[None, None, None]","['', -5, 10, -10, -10, 5, 5, -5, 5, 10, 5, -5, -5]",537120,[],mouselab-mdp,c1.1,414905543794851947,6,0,0,0,0
22,2,22,"[4904, 5496, 6056]","['up', 'up', 'right']",training,"['1', '2', '3']","{'click': {'state': {'target': ['5', '1', '9', '4', '3'], 'time': [1266, 2137, 2641, 3521, 3897]}, 'edge': {'target': [], 'time': []}}, 'mouseover': {'state': {'target': ['5', '5', '1', '9', '2', '4', '2', '3'], 'time': [592, 1176, 1994, 2377, 3195, 3396, 3680, 3746]}, 'edge': {'target': [], 'time': []}}, 'mouseout': {'state': {'target': ['5', '5', '1', '9', '2', '4', '2', '3', '0'], 'time': [643, 1660, 2344, 3061, 3346, 3662, 3729, 7383, 7616]}, 'edge': {'target': [], 'time': []}}}","[10, -5, 5]","[93.58500000007916, 70.33499999984633, 4901.619999999646]",2,[],5,"[None, None, None]","['', 10, -5, 5, -10, -5, 5, 10, -10, 5, 10, 10, 10]",545272,[],mouselab-mdp,c1.1,4872536360203573425,5,0,0,0,0
23,2,23,"[4297, 4945, 5457]","['left', 'left', 'up']",training,"['9', '10', '11']","{'click': {'state': {'target': ['9', '1', '5', '11', '12'], 'time': [828, 1179, 1979, 3027, 3531]}, 'edge': {'target': [], 'time': []}}, 'mouseover': {'state': {'target': ['9', '1', '5', '0', '10', '11', '10', '12'], 'time': [583, 1050, 1834, 2569, 2652, 2869, 3253, 3303]}, 'edge': {'target': [], 'time': []}}, 'mouseout': {'state': {'target': ['9', '1', '5', '0', '9', '10', '11', '10', '12'], 'time': [950, 1384, 2552, 2602, 2636, 2785, 3235, 3286, 6706]}, 'edge': {'target': [], 'time': []}}}","[10, -5, 10]","[95.88500000024214, 54.94500000029802, 4295.5599999999395]",2,[],10,"[None, None, None]","['', -5, -10, 5, 10, 5, -10, -5, 10, 10, -5, 10, 5]",556111,[],mouselab-mdp,c1.1,7422421261234896539,5,0,0,0,0
24,2,24,"[4005, 4605, 5106]","['up', 'up', 'left']",training,"['1', '2', '4']","{'click': {'state': {'target': ['9', '1', '5', '4'], 'time': [855, 1582, 1975, 3046]}, 'edge': {'target': [], 'time': []}}, 'mouseover': {'state': {'target': ['9', '1', '5', '2', '4'], 'time': [728, 1428, 1829, 2780, 2930]}, 'edge': {'target': [], 'time': []}}, 'mouseout': {'state': {'target': ['9', '1', '5', '1', '2', '4'], 'time': [1045, 1762, 2479, 2580, 2880, 6483]}, 'edge': {'target': [], 'time': []}}}","[10, 10, 10]","[155.31000000005588, 16.619999999878928, 4003.329999999958]",2,[],26,"[None, None, None]","['', 10, 10, 10, 10, 5, 5, 10, 5, -5, 5, 5, 5]",565007,[],mouselab-mdp,c1.1,6627999187013791928,4,0,0,0,0
25,2,25,"[4794, 5385, 5937]","['right', 'right', 'down']",test,"['5', '6', '8']","{'click': {'state': {'target': ['1', '9', '5', '7', '8'], 'time': [996, 2091, 2650, 3482, 3955]}, 'edge': {'target': [], 'time': []}}, 'mouseover': {'state': {'target': ['1', '9', '5', '7', '6', '8'], 'time': [730, 1464, 2465, 3299, 3767, 3800]}, 'edge': {'target': [], 'time': []}}, 'mouseout': {'state': {'target': ['1', '9', '5', '7', '6', '8'], 'time': [1397, 2365, 3216, 3733, 3783, 7221]}, 'edge': {'target': [], 'time': []}}}","[10, 5, 5]","[105.72000000008848, 4.559999999939464, 4791.854999999981]",2,[],15,"[None, None, None]","['', 5, -5, -10, -5, 10, 5, 5, 5, -10, -10, -10, 5]",612716,[],mouselab-mdp,c1.1,-480933043113506846,5,0,0,0,0
26,2,26,"[4587, 5187, 5771]","['left', 'left', 'up']",test,"['9', '10', '11']","{'click': {'state': {'target': ['1', '5', '9', '11', '12'], 'time': [1437, 1948, 2412, 3388, 3796]}, 'edge': {'target': [], 'time': []}}, 'mouseover': {'state': {'target': ['1', '5', '0', '9', '11', '10', '12'], 'time': [1239, 1706, 2206, 2273, 3174, 3574, 3624]}, 'edge': {'target': [], 'time': []}}, 'mouseout': {'state': {'target': ['1', '5', '0', '9', '9', '11', '10', '12'], 'time': [1639, 2190, 2223, 2891, 3140, 3558, 3591, 8163]}, 'edge': {'target': [], 'time': []}}}","[10, -10, 10]","[97.86000000033528, 49.60000000032596, 4585.4199999999255]",2,[],5,"[None, None, None]","['', 5, -5, -5, 5, 5, 10, 10, 5, 10, -10, 10, 5]",620653,[],mouselab-mdp,c1.1,1812949729192026457,5,0,0,0,0
27,2,27,"[5536, 6167, 6808]","['right', 'right', 'up']",test,"['5', '6', '7']","{'click': {'state': {'target': ['9', '1', '5', '7'], 'time': [1354, 1721, 2153, 3377]}, 'edge': {'target': [], 'time': []}}, 'mouseover': {'state': {'target': ['0', '9', '1', '5', '7', '6', '8', '8'], 'time': [850, 1251, 1567, 1984, 3252, 3703, 3753, 4420]}, 'edge': {'target': [], 'time': []}}, 'mouseout': {'state': {'target': ['0', '9', '1', '5', '7', '6', '8', '8'], 'time': [867, 1484, 1885, 3002, 3669, 3736, 3803, 8175]}, 'edge': {'target': [], 'time': []}}}","[-5, 5, 10]","[108.4000000001397, 92.43999999994412, 5533.734999999986]",2,[],6,"[None, None, None]","['', -10, 5, 5, -5, -5, 5, 10, -10, -5, -5, -10, 10]",629571,[],mouselab-mdp,c1.1,6236416765508790471,4,0,0,0,0
28,2,28,"[11504, 12055, 12631]","['right', 'right', 'up']",test,"['5', '6', '7']","{'click': {'state': {'target': ['5', '1', '9', '3', '7'], 'time': [6906, 7345, 7809, 8953, 10393]}, 'edge': {'target': [], 'time': []}}, 'mouseover': {'state': {'target': ['5', '1', '9', '2', '3', '2', '4', '2', '7'], 'time': [6706, 7123, 7724, 8640, 8758, 9576, 9675, 9892, 9960]}, 'edge': {'target': [], 'time': []}}, 'mouseout': {'state': {'target': ['5', '1', '9', '1', '2', '3', '2', '4', '2', '7', '5'], 'time': [7056, 7640, 8490, 8557, 8658, 9542, 9625, 9849, 9925, 14180, 14247]}, 'edge': {'target': [], 'time': []}}}","[5, -5, 10]","[126.17999999970198, 148.25000000023283, 11502.74000000034]",2,[],5,"[None, None, None]","['', 5, -5, 5, -10, 5, -5, 10, -5, -10, -10, -5, -10]",656034,[],mouselab-mdp,c1.1,-6213033947036441941,5,0,0,0,0
29,2,29,"[9346, 10218, 10765]","['left', 'left', 'up']",test,"['9', '10', '11']","{'click': {'state': {'target': ['1', '9', '5', '4', '3', '7', '8', '11', '12'], 'time': [1044, 1683, 2387, 3515, 4243, 4972, 5691, 6931, 7531]}, 'edge': {'target': [], 'time': []}}, 'mouseover': {'state': {'target': ['0', '1', '9', '0', '5', '4', '2', '3', '7', '6', '8', '0', '11', '10', '12'], 'time': [750, 866, 1483, 2184, 2218, 3386, 3936, 4019, 4753, 5404, 5504, 6172, 6822, 7322, 7389]}, 'edge': {'target': [], 'time': []}}, 'mouseout': {'state': {'target': ['0', '1', '9', '0', '5', '1', '4', '2', '3', '7', '6', '8', '0', '11', '10', '12'], 'time': [766, 1401, 2151, 2200, 3102, 3152, 3902, 3969, 4671, 5387, 5421, 6122, 6189, 7290, 7357, 12061]}, 'edge': {'target': [], 'time': []}}}","[5, -10, 5]","[58.8499999998603, 83.44500000018161, 9344.915000000037]",2,[],-9,"[None, None, None]","['', 5, 10, -10, -10, 5, -5, 5, -5, 5, -10, 5, -10]",665946,[],mouselab-mdp,c1.1,-5258236874187993063,9,0,0,0,0
30,2,30,"[4885, 5485, 6189]","['right', 'right', 'up']",test,"['5', '6', '7']","{'click': {'state': {'target': ['9', '1', '5', '3', '7'], 'time': [760, 1247, 1679, 2895, 3455]}, 'edge': {'target': [], 'time': []}}, 'mouseover': {'state': {'target': ['9', '1', '5', '3', '7'], 'time': [583, 1133, 1551, 2734, 3335]}, 'edge': {'target': [], 'time': []}}, 'mouseout': {'state': {'target': ['9', '1', '5', '3', '7', '0'], 'time': [982, 1467, 2601, 3253, 3919, 7656]}, 'edge': {'target': [], 'time': []}}}","[10, 5, 10]","[373.21999999997206, 52.6999999997206, 4884.199999999953]",2,[],20,"[None, None, None]","['', 10, -5, 5, -5, 10, 5, 10, 5, -10, -10, 5, -10]",682257,[],mouselab-mdp,c1.1,-3419255245952545746,5,0,0,0,0
31,2,31,"[7195, 7794, 8330]","['left', 'left', 'up']",test,"['9', '10', '11']","{'click': {'state': {'target': ['9', '1', '5', '3', '4', '11', '12'], 'time': [1077, 1452, 2620, 3388, 3956, 4588, 5044]}, 'edge': {'target': [], 'time': []}}, 'mouseover': {'state': {'target': ['9', '1', '5', '3', '2', '4', '11', '10', '12'], 'time': [884, 1284, 2451, 3235, 3703, 3803, 4420, 4787, 4838]}, 'edge': {'target': [], 'time': []}}, 'mouseout': {'state': {'target': ['9', '1', '1', '5', '3', '2', '4', '11', '10', '12'], 'time': [1217, 2134, 2301, 3035, 3669, 3753, 4371, 4771, 4803, 9625]}, 'edge': {'target': [], 'time': []}}}","[10, 10, 5]","[95.56000000028871, 198.58000000019092, 7193.0900000002]",2,[],18,"[None, None, None]","['', 10, -10, -10, -5, -10, 10, -10, -5, 10, 10, 5, -5]",695040,[],mouselab-mdp,c1.1,-7551434874100481170,7,0,0,0,0
32,2,32,"[4710, 5350, 6374]","['right', 'right', 'down']",test,"['5', '6', '8']","{'click': {'state': {'target': ['9', '1', '5', '7', '8'], 'time': [1753, 2208, 2688, 3448, 3864]}, 'edge': {'target': [], 'time': []}}, 'mouseover': {'state': {'target': ['0', '9', '9', '1', '5', '7', '6', '8'], 'time': [1115, 1282, 1599, 2015, 2550, 3234, 3652, 3701]}, 'edge': {'target': [], 'time': []}}, 'mouseout': {'state': {'target': ['0', '9', '9', '1', '5', '7', '6', '8'], 'time': [1232, 1298, 1916, 2467, 3183, 3635, 3685, 7538]}, 'edge': {'target': [], 'time': []}}}","[10, -10, 10]","[103.18499999993946, 37.11999999999534, 4708.145000000019]",2,[],5,"[None, None, None]","['', -5, 10, 10, -5, 10, -10, 10, 10, -10, 10, -5, 5]",727839,[],mouselab-mdp,c1.1,-2335338845607237157,5,0,0,0,0
33,2,33,"[31113, 31793, 32833]","['right', 'right', 'down']",test,"['5', '6', '8']","{'click': {'state': {'target': ['1', '9', '5', '11', '12', '7', '8'], 'time': [24932, 25435, 25819, 26715, 27651, 29003, 29579]}, 'edge': {'target': [], 'time': []}}, 'mouseover': {'state': {'target': ['8', '5', '1', '9', '0', '5', '11', '10', '12', '0', '6', '7', '6', '8'], 'time': [24515, 24563, 24631, 25148, 25615, 25681, 26599, 27100, 27183, 28401, 28585, 28834, 29252, 29418]}, 'edge': {'target': [], 'time': []}}, 'mouseout': {'state': {'target': ['8', '5', '1', '9', '0', '5', '11', '10', '12', '0', '5', '6', '7', '6', '8', '8'], 'time': [24546, 24579, 25096, 25598, 25648, 26298, 27082, 27133, 28250, 28434, 28467, 28650, 29235, 29318, 34098, 34156]}, 'edge': {'target': [], 'time': []}}}","[5, 5, 5]","[144.4000000001397, 518.1499999999069, 31112.839999999735]",2,[],8,"[None, None, None]","['', -5, -10, -5, 5, 5, 5, -5, 5, 10, 10, -5, -5]",739390,[],mouselab-mdp,c1.1,-3937512532655523332,7,0,0,0,0
34,2,34,"[4652, 5259, 5867]","['right', 'right', 'up']",test,"['5', '6', '7']","{'click': {'state': {'target': ['1', '9', '5', '7', '8'], 'time': [1222, 1621, 2157, 3101, 3701]}, 'edge': {'target': [], 'time': []}}, 'mouseover': {'state': {'target': ['1', '9', '0', '5', '7', '6', '8'], 'time': [901, 1418, 1953, 1986, 2937, 3537, 3587]}, 'edge': {'target': [], 'time': []}}, 'mouseout': {'state': {'target': ['1', '9', '0', '5', '7', '6', '8'], 'time': [1368, 1919, 1969, 2537, 3520, 3571, 7241]}, 'edge': {'target': [], 'time': []}}}","[10, 5, 5]","[187.17000000015832, 543.6899999999441, 4648.52500000014]",2,[],15,"[None, None, None]","['', 5, -5, -10, -10, 10, 5, 5, -10, -10, -5, 10, 5]",748406,[],mouselab-mdp,c1.1,4007649613694420024,5,0,0,0,0
35,4,0,"[7911, 38996, 47413]","['left', 'left', 'up']",training,"['9', '10', '11']","{'click': {'state': {'target': ['9'], 'time': [6069]}, 'edge': {'target': [], 'time': []}}, 'mouseover': {'state': {'target': ['8', '0', '0', '0', '9'], 'time': [2547, 3029, 4333, 4698, 4888]}, 'edge': {'target': [], 'time': []}}, 'mouseout': {'state': {'target': ['8', '0', '0', '0', '9', '9', '9', '10', '9', '9', '9', '0', '9', '0', '9', '10', '9', '0', '0'], 'time': [2565, 3097, 4587, 4714, 6867, 9316, 9488, 11401, 11512, 13531, 25633, 30599, 30898, 31263, 31830, 34099, 34178, 34378, 50062]}, 'edge': {'target': [], 'time': []}}}","[10, 5, -5]","[93835.42500017211, 31028.104999568313, 45500.60999998823]",2,0,9,"[None, None, None]","['', -5, 10, -10, -10, 5, 5, -5, 5, 10, 5, -5, -5]",93842,[],mouselab-mdp,c1.1,414905543794851947,1,0,0,0,0
36,4,1,"[4086, 10158, 14477]","['right', 'right', 'down']",training,"['5', '6', '8']","{'click': {'state': {'target': [], 'time': []}, 'edge': {'target': [], 'time': []}}, 'mouseover': {'state': {'target': [], 'time': []}, 'edge': {'target': [], 'time': []}}, 'mouseout': {'state': {'target': [], 'time': []}, 'edge': {'target': [], 'time': []}}}","[5, -5, 5]","[21981.554999947548, 60816.94500008598, 34763.920000288635]",2,0.21,5,"[None, None, None]","['', 10, -5, 5, 10, 5, -5, -5, 5, -10, 10, 5, 10]",124875,[],mouselab-mdp,c1.1,7268211764423054070,0,0,0,0,0
37,4,2,"[1462, 4251, 6187]","['up', 'up', 'right']",training,"['1', '2', '3']","{'click': {'state': {'target': [], 'time': []}, 'edge': {'target': [], 'time': []}}, 'mouseover': {'state': {'target': [], 'time': []}, 'edge': {'target': [], 'time': []}}, 'mouseout': {'state': {'target': [], 'time': []}, 'edge': {'target': [], 'time': []}}}","[10, -5, 5]","[11095.524999778718, 21937.365000136197, 7908.520000055432]",2,[],10,"[None, None, None]","['', 10, -5, 5, -10, -5, 5, 10, -10, 5, 10, 10, 10]",177770,[],mouselab-mdp,c1.1,4872536360203573425,0,0,0,0,0
38,4,3,"[4620, 11098, 13720]","['right', 'right', 'down']",training,"['5', '6', '8']","{'click': {'state': {'target': [], 'time': []}, 'edge': {'target': [], 'time': []}}, 'mouseover': {'state': {'target': [], 'time': []}, 'edge': {'target': [], 'time': []}}, 'mouseout': {'state': {'target': [], 'time': []}, 'edge': {'target': [], 'time': []}}}","[-10, 10, 10]","[30557.555000297725, 7915.09999986738, 4083.0149999819696]",2,[],10,"[None, None, None]","['', 5, -5, 10, -5, -10, 10, -10, 10, 5, -10, -10, -5]",199756,[],mouselab-mdp,c1.1,2578129633459781071,0,0,0,0,0
39,4,4,"[3717, 5798, 7685]","['up', 'up', 'right']",training,"['1', '2', '3']","{'click': {'state': {'target': [], 'time': []}, 'edge': {'target': [], 'time': []}}, 'mouseover': {'state': {'target': [], 'time': []}, 'edge': {'target': [], 'time': []}}, 'mouseout': {'state': {'target': [], 'time': []}, 'edge': {'target': [], 'time': []}}}","[-5, -10, 10]","[5565.399999730289, 3826.9400000572205, 1458.6249999701977]",2,[],-5,"[None, None, None]","['', -5, -10, 10, -5, 10, -10, 10, 10, -5, 10, -5, -10]",264942,[],mouselab-mdp,c1.1,-7536988618031787221,0,0,0,0,0
40,4,5,"[7627, 10770, 14517]","['left', 'left', 'down']",training,"['9', '10', '12']","{'click': {'state': {'target': ['9'], 'time': [6129]}, 'edge': {'target': [], 'time': []}}, 'mouseover': {'state': {'target': ['9'], 'time': [5578]}, 'edge': {'target': [], 'time': []}}, 'mouseout': {'state': {'target': [], 'time': []}, 'edge': {'target': [], 'time': []}}}","[5, 10, 10]","[2286.174999549985, 1416.1399998702109, 4618.155000265688]",2,[],24,"[None, None, None]","['', 10, -5, -5, 10, 5, -5, -10, 10, 5, 10, -5, 10]",299710,[],mouselab-mdp,c1.1,1017601537737615534,1,0,0,0,0
41,4,6,"[6896, 8567, 10169]","['up', 'up', 'right']",training,"['1', '2', '3']","{'click': {'state': {'target': ['1'], 'time': [5810]}, 'edge': {'target': [], 'time': []}}, 'mouseover': {'state': {'target': ['9', '1'], 'time': [None, 4863]}, 'edge': {'target': [], 'time': []}}, 'mouseout': {'state': {'target': ['9'], 'time': [4032]}, 'edge': {'target': [], 'time': []}}}","[10, -10, 10]","[5974.109999835491, 2112.375000026077, 3714.87500006333]",2,[],9,"[None, None, None]","['', 10, -10, 10, 5, 5, -10, -10, 10, -10, -5, 5, 10]",325015,[],mouselab-mdp,c1.1,-7479633459398711011,1,0,0,0,0
42,4,7,"[6604, 13668, 15193]","['left', 'left', 'down']",training,"['9', '10', '12']","{'click': {'state': {'target': ['5'], 'time': [3514]}, 'edge': {'target': [], 'time': []}}, 'mouseover': {'state': {'target': ['1', '5'], 'time': [None, 2648]}, 'edge': {'target': [], 'time': []}}, 'mouseout': {'state': {'target': ['1', '5', '0', '9', '10', '9', '9', '0', '9', '9'], 'time': [1851, 10532, 10932, 10982, 11782, 11814, 11849, 12032, 12315, 12751]}, 'edge': {'target': [], 'time': []}}}","[5, -10, 5]","[1585.254999808967, 1371.9949997030199, 7624.735000077635]",2,[],-1,"[None, None, None]","['', -5, 5, -10, 5, -5, -5, 5, -5, 5, -10, 10, 5]",346956,[],mouselab-mdp,c1.1,-9223140426054324916,1,0,0,0,0
43,4,8,"[4713, 6227, 8646]","['right', 'right', 'down']",training,"['5', '6', '8']","{'click': {'state': {'target': ['5'], 'time': [3502]}, 'edge': {'target': [], 'time': []}}, 'mouseover': {'state': {'target': ['0', '0', '0', '0', '0', '1', '5', '5'], 'time': [923, 1017, 1317, 1365, 1513, 1864, 2180, 2700]}, 'edge': {'target': [], 'time': []}}, 'mouseout': {'state': {'target': ['0', '0', '0', '0', '0', '1', '5'], 'time': [937, 1125, 1336, 1448, 1664, 2031, 2485]}, 'edge': {'target': [], 'time': []}}}","[5, 5, 5]","[2628.2249996438622, 3240.6100002117455, 6893.799999728799]",2,[],14,"[None, None, None]","['', 10, 10, 10, 10, 5, 5, 10, 5, -5, 5, 5, 5]",398329,[],mouselab-mdp,c1.1,6627999187013791928,1,0,0,0,0
44,4,9,"[4196, 6136, 7623]","['right', 'right', 'up']",training,"['5', '6', '7']","{'click': {'state': {'target': ['1'], 'time': [1808]}, 'edge': {'target': [], 'time': []}}, 'mouseover': {'state': {'target': ['5', '1', '0', '0'], 'time': [None, 1489, 3306, 3353]}, 'edge': {'target': [], 'time': []}}, 'mouseout': {'state': {'target': ['5', '1', '0', '0'], 'time': [1125, 3255, 3322, 3654]}, 'edge': {'target': [], 'time': []}}}","[10, -5, -5]","[1148.2850001193583, 1086.7999996989965, 6602.325000334531]",2,[],-1,"[None, None, None]","['', -5, -5, 5, -10, 10, -5, -5, -10, -10, -5, 5, -5]",415200,[],mouselab-mdp,c1.1,-6894841345479573840,1,0,0,0,0
45,4,10,"[5820, 12232, 13526]","['up', 'up', 'right']",training,"['1', '2', '3']","{'click': {'state': {'target': ['9'], 'time': [4309]}, 'edge': {'target': [], 'time': []}}, 'mouseover': {'state': {'target': ['9', '9'], 'time': [2194, 3943]}, 'edge': {'target': [], 'time': []}}, 'mouseout': {'state': {'target': ['9', '9'], 'time': [2747, 5328]}, 'edge': {'target': [], 'time': []}}}","[-5, -5, 5]","[6564.995000138879, 1021.7249998822808, 4707.055000122637]",2,[],-6,"[None, None, None]","['', -5, -5, 5, 10, 10, -10, -10, -10, -10, 10, 10, 10]",425657,[],mouselab-mdp,c1.1,3866759347579099958,1,0,0,0,0
46,4,11,"[6404, 8233, 9640]","['up', 'up', 'right']",training,"['1', '2', '3']","{'click': {'state': {'target': ['5'], 'time': [4314]}, 'edge': {'target': [], 'time': []}}, 'mouseover': {'state': {'target': ['0', '0', '5', '5', '0', '0'], 'time': [3265, 3443, 3543, 3932, 5679, 5732]}, 'edge': {'target': [], 'time': []}}, 'mouseout': {'state': {'target': ['0', '0', '5', '5', '0', '0'], 'time': [3293, 3510, 3595, 5330, 5697, 5747]}, 'edge': {'target': [], 'time': []}}}","[-10, 5, 10]","[1007.6399999670684, 1924.1200000979006, 4194.2299995571375]",2,[],4,"[None, None, None]","['', -10, 5, 10, 5, -10, 5, -5, 5, 10, 5, 5, -5]",441753,[],mouselab-mdp,c1.1,8150121140183900524,1,0,0,0,0
47,4,12,"[3689, 6654, 8728]","['left', 'left', 'down']",training,"['9', '10', '12']","{'click': {'state': {'target': ['9'], 'time': [2596]}, 'edge': {'target': [], 'time': []}}, 'mouseover': {'state': {'target': ['9'], 'time': [2273]}, 'edge': {'target': [], 'time': []}}, 'mouseout': {'state': {'target': [], 'time': []}, 'edge': {'target': [], 'time': []}}}","[10, -10, -10]","[1445.005000103265, 965.9600001759827, 5817.704999819398]",2,[],-11,"[None, None, None]","['', 10, -5, -5, -10, 5, -10, -5, 5, 10, -10, -5, -10]",451299,[],mouselab-mdp,c1.1,-2954430571130452544,1,0,0,0,0
48,4,13,"[9074, 10701, 13774]","['right', 'right', 'down']",training,"['5', '6', '8']","{'click': {'state': {'target': [], 'time': []}, 'edge': {'target': [], 'time': []}}, 'mouseover': {'state': {'target': ['9', '0', '5', '0', '5'], 'time': [None, 2063, 2276, 3963, 7961]}, 'edge': {'target': [], 'time': []}}, 'mouseout': {'state': {'target': ['9', '0', '5', '0'], 'time': [1981, 2248, 3929, 4379]}, 'edge': {'target': [], 'time': []}}}","[-10, 10, -5]","[5919.650000054389, 798.2250000350177, 6402.029999997467]",2,[],-5,"[None, None, None]","['', 10, -5, -10, 10, -10, 10, 5, -5, -5, -5, 10, -5]",467928,[],mouselab-mdp,c1.1,-1180109183885401005,0,0,0,0,0
49,4,14,"[10042, 11549, 13152]","['right', 'right', 'up']",training,"['5', '6', '7']","{'click': {'state': {'target': ['1'], 'time': [5960]}, 'edge': {'target': [], 'time': []}}, 'mouseover': {'state': {'target': ['5', '1'], 'time': [None, 2922]}, 'edge': {'target': [], 'time': []}}, 'mouseout': {'state': {'target': ['5'], 'time': [2539]}, 'edge': {'target': [], 'time': []}}}","[5, -10, 5]","[1318.170000333339, 908.5300001315773, 3686.025000177324]",2,[],-1,"[None, None, None]","['', -5, -10, 5, -5, 5, -10, 5, 10, -5, 10, -5, -5]",479891,[],mouselab-mdp,c1.1,-5783848652440910710,1,0,0,0,0
50,4,15,"[5475, 9375, 12365]","['up', 'up', 'right']",training,"['1', '2', '3']","{'click': {'state': {'target': ['1'], 'time': [4226]}, 'edge': {'target': [], 'time': []}}, 'mouseover': {'state': {'target': ['1', '9', '1'], 'time': [None, 2459, 3158]}, 'edge': {'target': [], 'time': []}}, 'mouseout': {'state': {'target': ['1', '9'], 'time': [1944, 2542]}, 'edge': {'target': [], 'time': []}}}","[10, 5, -5]","[2449.1200000047684, 1573.545000050217, 9070.729999803007]",2,[],9,"[None, None, None]","['', 10, 5, -5, -5, 5, 5, 10, 10, 5, -5, -5, -5]",497557,[],mouselab-mdp,c1.1,-1711934015224181778,1,0,0,0,0
51,4,16,"[3229, 5111, 7423]","['left', 'left', 'up']",training,"['9', '10', '11']","{'click': {'state': {'target': [], 'time': []}, 'edge': {'target': [], 'time': []}}, 'mouseover': {'state': {'target': ['1'], 'time': [None]}, 'edge': {'target': [], 'time': []}}, 'mouseout': {'state': {'target': [], 'time': []}, 'edge': {'target': [], 'time': []}}}","[5, -10, -10]","[1136.9799999520183, 2559.4500000588596, 10035.499999765307]",2,[],-15,"[None, None, None]","['', 10, -5, -5, 10, 5, -10, 10, -10, 5, -10, -10, -10]",507888,[],mouselab-mdp,c1.1,3683435731857920434,0,0,0,0,0
52,4,17,"[1565, 2731, 4394]","['right', 'right', 'down']",training,"['5', '6', '8']","{'click': {'state': {'target': [], 'time': []}, 'edge': {'target': [], 'time': []}}, 'mouseover': {'state': {'target': ['1'], 'time': [None]}, 'edge': {'target': [], 'time': []}}, 'mouseout': {'state': {'target': [], 'time': []}, 'edge': {'target': [], 'time': []}}}","[-5, 5, -10]","[1008.8100000284612, 1108.4750001318753, 5472.870000172406]",2,[],-10,"[None, None, None]","['', -10, 5, 5, -5, -5, 5, 10, -10, -5, -5, -10, 10]",517870,[],mouselab-mdp,c1.1,6236416765508790471,0,0,0,0,0
53,4,18,"[1873, 2902, 5853]","['left', 'left', 'down']",training,"['9', '10', '12']","{'click': {'state': {'target': [], 'time': []}, 'edge': {'target': [], 'time': []}}, 'mouseover': {'state': {'target': ['1'], 'time': [None]}, 'edge': {'target': [], 'time': []}}, 'mouseout': {'state': {'target': [], 'time': []}, 'edge': {'target': [], 'time': []}}}","[-10, 10, 5]","[3381.545000243932, 2488.2999998517334, 3225.9999997913837]",2,[],5,"[None, None, None]","['', -5, 10, 10, -5, 10, -10, 10, 10, -10, 10, -5, 5]",534317,[],mouselab-mdp,c1.1,-2335338845607237157,0,0,0,0,0
54,4,19,"[4559, 8171, 9817]","['up', 'up', 'right']",training,"['1', '2', '3']","{'click': {'state': {'target': ['1'], 'time': [3128]}, 'edge': {'target': [], 'time': []}}, 'mouseover': {'state': {'target': ['1', '2', '1'], 'time': [None, 1999, 2350]}, 'edge': {'target': [], 'time': []}}, 'mouseout': {'state': {'target': ['1', '2'], 'time': [1934, 2279]}, 'edge': {'target': [], 'time': []}}}","[10, -10, -10]","[1388.7749998830259, 1797.6300003938377, 1561.6299998946488]",2,[],-11,"[None, None, None]","['', 10, -10, -10, -5, -10, 10, -10, -5, 10, 10, 5, -5]",545706,[],mouselab-mdp,c1.1,-7551434874100481170,1,0,0,0,0
55,4,20,"[3638, 5006, 6533]","['right', 'right', 'down']",training,"['5', '6', '8']","{'click': {'state': {'target': ['5'], 'time': [2583]}, 'edge': {'target': [], 'time': []}}, 'mouseover': {'state': {'target': ['1', '5'], 'time': [None, 2359]}, 'edge': {'target': [], 'time': []}}, 'mouseout': {'state': {'target': ['1'], 'time': [1944]}, 'edge': {'target': [], 'time': []}}}","[10, -5, 10]","[668.0250000208616, 1149.4049998000264, 1870.6249999813735]",2,[],14,"[None, None, None]","['', 10, 10, -5, -5, 10, -5, 5, 10, -10, -5, 10, -5]",556681,[],mouselab-mdp,c1.1,4878857294870962815,1,0,0,0,0
56,4,21,"[6483, 7945, 9245]","['right', 'right', 'down']",training,"['5', '6', '8']","{'click': {'state': {'target': ['9'], 'time': [3338]}, 'edge': {'target': [], 'time': []}}, 'mouseover': {'state': {'target': ['5', '9', '0', '5'], 'time': [None, 2389, 4639, 5456]}, 'edge': {'target': [], 'time': []}}, 'mouseout': {'state': {'target': ['5', '9', '0'], 'time': [1870, 4574, 4888]}, 'edge': {'target': [], 'time': []}}}","[-5, -5, 10]","[515.5750000849366, 2450.1749998889863, 4558.145000133663]",2,[],-1,"[None, None, None]","['', 5, 5, 5, 10, -5, -5, 10, 10, -10, 10, 5, -10]",572542,[],mouselab-mdp,c1.1,2087369140992358120,1,0,0,0,0
57,4,22,"[3612, 5112, 7962]","['up', 'up', 'left']",training,"['1', '2', '4']","{'click': {'state': {'target': ['1'], 'time': [2690]}, 'edge': {'target': [], 'time': []}}, 'mouseover': {'state': {'target': ['5', '1'], 'time': [None, 2298]}, 'edge': {'target': [], 'time': []}}, 'mouseout': {'state': {'target': ['5', '1'], 'time': [1663, 10345]}, 'edge': {'target': [], 'time': []}}}","[5, -10, -10]","[3070.52499987185, 1150.6599998101592, 3636.9800004176795]",2,[],-16,"[None, None, None]","['', 5, -10, -5, -10, 5, -10, -5, -10, 5, -10, -5, -5]",587548,[],mouselab-mdp,c1.1,-3161758675468624755,1,0,0,0,0
58,4,23,"[2296, 3480, 5104]","['left', 'left', 'down']",training,"['9', '10', '12']","{'click': {'state': {'target': [], 'time': []}, 'edge': {'target': [], 'time': []}}, 'mouseover': {'state': {'target': [], 'time': []}, 'edge': {'target': [], 'time': []}}, 'mouseout': {'state': {'target': [], 'time': []}, 'edge': {'target': [], 'time': []}}}","[-10, 5, -10]","[848.8449999131262, 1004.3850000947714, 6480.9950003400445]",2,[],-15,"[None, None, None]","['', 5, -10, 5, -5, 5, -10, -5, 5, -10, 5, 10, -10]",601956,[],mouselab-mdp,c1.1,7231669751605023291,0,0,0,0,0
59,4,24,"[2391, 3440, 4384]","['right', 'right', 'down']",training,"['5', '6', '8']","{'click': {'state': {'target': [], 'time': []}, 'edge': {'target': [], 'time': []}}, 'mouseover': {'state': {'target': [], 'time': []}, 'edge': {'target': [], 'time': []}}, 'mouseout': {'state': {'target': [], 'time': []}, 'edge': {'target': [], 'time': []}}}","[-5, -10, 10]","[950.01499960199, 787.4399996362627, 3610.270000062883]",2,[],-5,"[None, None, None]","['', -5, -10, 10, 5, -5, -10, 10, 10, 10, -5, -10, -5]",611353,[],mouselab-mdp,c1.1,2750862718315450113,0,0,0,0,0
60,4,25,"[4781, 5605, 9807]","['right', 'right', 'down']",test,"['5', '6', '8']","{'click': {'state': {'target': ['5'], 'time': [3833]}, 'edge': {'target': [], 'time': []}}, 'mouseover': {'state': {'target': ['5', '5'], 'time': [3195, 3543]}, 'edge': {'target': [], 'time': []}}, 'mouseout': {'state': {'target': ['5'], 'time': [3244]}, 'edge': {'target': [], 'time': []}}}","[5, 10, 10]","[980.6650001555681, 2329.615000169724, 2294.770000036806]",2,[],24,"[None, None, None]","['', 5, -5, -10, 5, 5, 10, -10, 10, 5, 10, 10, -10]",617642,[],mouselab-mdp,c1.1,-6971508633356900299,1,0,0,0,0
61,4,26,"[4011, 5667, 7094]","['left', 'left', 'down']",test,"['9', '10', '12']","{'click': {'state': {'target': ['9'], 'time': [2758]}, 'edge': {'target': [], 'time': []}}, 'mouseover': {'state': {'target': ['5', '0', '0', '9'], 'time': [None, 1709, 2093, 2190]}, 'edge': {'target': [], 'time': []}}, 'mouseout': {'state': {'target': ['5', '0', '0'], 'time': [1644, 1723, 2109]}, 'edge': {'target': [], 'time': []}}}","[10, -10, -5]","[669.3200003355742, 1104.6199998818338, 2388.770000077784]",2,[],-6,"[None, None, None]","['', -10, 10, -10, -5, 10, 10, -5, -10, 10, -10, -5, -5]",625426,[],mouselab-mdp,c1.1,7635016637374854832,1,0,0,0,0
62,4,27,"[7592, 10334, 12112]","['left', 'left', 'up']",test,"['9', '10', '11']","{'click': {'state': {'target': ['9'], 'time': [3407]}, 'edge': {'target': [], 'time': []}}, 'mouseover': {'state': {'target': ['9', '0', '0', '0', '0', '9'], 'time': [None, 1926, 2191, 2808, 2891, 3157]}, 'edge': {'target': [], 'time': []}}, 'mouseout': {'state': {'target': ['9', '0', '0', '0', '0'], 'time': [1811, 1961, 2241, 2825, 2909]}, 'edge': {'target': [], 'time': []}}}","[10, -10, -10]","[542.4350001849234, 442.90499994531274, 4779.029999859631]",2,[],-11,"[None, None, None]","['', 5, -10, 5, -5, 10, 10, 10, 10, 10, -10, -10, 5]",637390,[],mouselab-mdp,c1.1,-2168368636003987728,1,0,0,0,0
63,4,28,"[7474, 8774, 10488]","['left', 'left', 'down']",test,"['9', '10', '12']","{'click': {'state': {'target': ['1', '5'], 'time': [1471, 5178]}, 'edge': {'target': [], 'time': []}}, 'mouseover': {'state': {'target': ['9', '1', '0', '5', '0'], 'time': [None, 1061, 3246, 4794, 6609]}, 'edge': {'target': [], 'time': []}}, 'mouseout': {'state': {'target': ['9', '1', '0', '5', '0'], 'time': [898, 2379, 3378, 6577, 6659]}, 'edge': {'target': [], 'time': []}}}","[-5, 5, -10]","[326.3099999167025, 3659.5900002866983, 4009.2250001616776]",2,[],-12,"[None, None, None]","['', -10, 10, 10, 5, -10, -10, 10, 5, -5, 5, 10, -10]",645590,[],mouselab-mdp,c1.1,5437414725336129514,2,0,0,0,0
64,4,29,"[5086, 5870, 7963]","['right', 'right', 'down']",test,"['5', '6', '8']","{'click': {'state': {'target': ['1', '5'], 'time': [2631, 4075]}, 'edge': {'target': [], 'time': []}}, 'mouseover': {'state': {'target': ['0', '0', '1', '5'], 'time': [1373, 1439, 1739, 3705]}, 'edge': {'target': [], 'time': []}}, 'mouseout': {'state': {'target': ['0', '0', '1'], 'time': [1392, 1458, 3370]}, 'edge': {'target': [], 'time': []}}}","[10, 10, 5]","[1140.8449998125434, 931.9150000810623, 7588.9249998144805]",2,[],23,"[None, None, None]","['', -10, -10, -10, 10, 10, 10, -10, 5, 5, -10, -5, 10]",656470,[],mouselab-mdp,c1.1,-6295193560893533809,2,0,0,0,0
65,4,30,"[15467, 17020, 22110]","['left', 'left', 'down']",test,"['9', '10', '12']","{'click': {'state': {'target': ['5', '1', '9'], 'time': [3769, 5487, 8991]}, 'edge': {'target': [], 'time': []}}, 'mouseover': {'state': {'target': ['5', '1', '9'], 'time': [None, 4787, 7371]}, 'edge': {'target': [], 'time': []}}, 'mouseout': {'state': {'target': ['5', '1'], 'time': [4522, 6622]}, 'edge': {'target': [], 'time': []}}}","[5, 10, -5]","[2222.2549999132752, 1281.7549998871982, 7472.5799998268485]",2,[],7,"[None, None, None]","['', 5, -10, 10, -5, -5, 5, 10, -5, 5, 10, -5, -5]",668533,[],mouselab-mdp,c1.1,-3477899293060009920,3,0,0,0,0
66,4,31,"[9144, 12889, 14803]","['left', 'left', 'up']",test,"['9', '10', '11']","{'click': {'state': {'target': ['9'], 'time': [6144]}, 'edge': {'target': [], 'time': []}}, 'mouseover': {'state': {'target': ['9', '1'], 'time': [None, 7155]}, 'edge': {'target': [], 'time': []}}, 'mouseout': {'state': {'target': ['9', '1', '9'], 'time': [6771, 7337, 7535]}, 'edge': {'target': [], 'time': []}}}","[10, -10, 10]","[776.9600003957748, 1190.5249999836087, 5083.929999731481]",2,[],9,"[None, None, None]","['', 5, -5, -5, 5, 5, 10, 10, 5, 10, -10, 10, 5]",675262,[],mouselab-mdp,c1.1,1812949729192026457,1,0,0,0,0
67,4,32,"[6771, 11204, 12408]","['up', 'up', 'right']",test,"['1', '2', '3']","{'click': {'state': {'target': ['5'], 'time': [4978]}, 'edge': {'target': [], 'time': []}}, 'mouseover': {'state': {'target': ['5'], 'time': [4537]}, 'edge': {'target': [], 'time': []}}, 'mouseout': {'state': {'target': [], 'time': []}, 'edge': {'target': [], 'time': []}}}","[-5, -10, 5]","[259.62999975308776, 1569.1649997606874, 15462.745000142604]",2,[],-11,"[None, None, None]","['', -5, -10, 5, 10, 5, -10, -10, 10, -10, 5, -5, -5]",681407,[],mouselab-mdp,c1.1,-8177337623937778033,1,0,0,0,0
68,4,33,"[3085, 6021, 8775]","['right', 'right', 'down']",test,"['5', '6', '8']","{'click': {'state': {'target': ['5'], 'time': [1981]}, 'edge': {'target': [], 'time': []}}, 'mouseover': {'state': {'target': ['5'], 'time': [None]}, 'edge': {'target': [], 'time': []}}, 'mouseout': {'state': {'target': [], 'time': []}, 'edge': {'target': [], 'time': []}}}","[10, 10, -10]","[1048.5000000335276, 4587.100000120699, 9142.10500009358]",2,[],9,"[None, None, None]","['', -10, 5, -10, 5, 10, 10, -5, -10, -5, 10, -5, 10]",693141,[],mouselab-mdp,c1.1,946869097947028489,1,0,0,0,0
69,4,34,"[3270, 10260, 13560]","['right', 'right', 'down']",test,"['5', '6', '8']","{'click': {'state': {'target': ['5'], 'time': [2205]}, 'edge': {'target': [], 'time': []}}, 'mouseover': {'state': {'target': ['5'], 'time': [None]}, 'edge': {'target': [], 'time': []}}, 'mouseout': {'state': {'target': [], 'time': []}, 'edge': {'target': [], 'time': []}}}","[10, 10, -5]","[3229.5599998906255, 1413.5650000534952, 6769.039999693632]",2,[],14,"[None, None, None]","['', 10, 5, 5, 10, 10, 10, 5, -5, 5, 10, 5, 5]",701874,[],mouselab-mdp,c1.1,3632821025587269967,1,0,0,0,0
70,7,0,"[22985, 24287, 31710]","['left', 'left', 'up']",training,"['9', '10', '11']","{'click': {'state': {'target': ['5', '6', '8', '7', '1', '9', '10', '12', '11'], 'time': [4994, 5970, 6806, 8103, 11281, 13897, 15222, 16276, 17842]}, 'edge': {'target': [], 'time': []}}, 'mouseover': {'state': {'target': ['0', '5', '6', '8', '7', '1', '9', '10', '12', '11'], 'time': [4147, 4396, 5472, 6375, 7706, 10703, 12233, 14634, 15728, 17027]}, 'edge': {'target': [], 'time': []}}, 'mouseout': {'state': {'target': ['0', '5', '6', '8', '6', '7', '1', '9', '10', '12', '10', '11'], 'time': [4191, 5445, 6309, 7302, 7388, 10624, 12215, 14567, 15699, 16932, 16995, 29355]}, 'edge': {'target': [], 'time': []}}}","[10, 10, -5]","[128854.8350003548, 24821.959999855608, 22982.59999975562]",2,0,6,"[None, None, None]","['', -5, -10, -5, 5, 5, 5, -5, 5, 10, 10, -5, -5]",128862,[],mouselab-mdp,c1.1,-3937512532655523332,9,0,0,0,0
71,7,1,"[29743, 32384, 34066]","['right', 'right', 'down']",training,"['5', '6', '8']","{'click': {'state': {'target': ['5', '6', '8', '1', '9', '10', '11', '12', '2', '3'], 'time': [6139, 7418, 8246, 11168, 12635, 13770, 15057, 16618, 19071, 20218]}, 'edge': {'target': [], 'time': []}}, 'mouseover': {'state': {'target': ['11', '4', '3', '5', '6', '8', '7', '2', '1', '0', '1', '9', '9', '10', '11', '12', '2', '3', '7', '7'], 'time': [2783, 2807, 3726, 4190, 6673, 7702, 8904, 10405, 10516, 10719, 10785, 11898, 12218, 13196, 14528, 15711, 17559, 19690, 27319, 27635]}, 'edge': {'target': [], 'time': []}}, 'mouseout': {'state': {'target': ['11', '4', '3', '5', '6', '8', '6', '7', '2', '1', '0', '1', '9', '9', '10', '11', '10', '12', '1', '2', '3', '5', '6', '5', '7', '7'], 'time': [2794, 2823, 4131, 6539, 7685, 8737, 8785, 10231, 10499, 10533, 10736, 11868, 11914, 13141, 14513, 15632, 15679, 17444, 17526, 19660, 20943, 25105, 26455, 27253, 27368, 28519]}, 'edge': {'target': [], 'time': []}}}","[5, -10, 10]","[795.9699998609722, 6902.174999937415, 29739.379999693483]",2,0.5,-5,"[None, None, None]","['', -5, -10, 5, 10, 5, -10, -10, 10, -10, 5, -5, -5]",153689,[],mouselab-mdp,c1.1,-8177337623937778033,10,0,0,0,0
72,7,2,"[12034, 12877, 14531]","['left', 'left', 'up']",training,"['9', '10', '11']","{'click': {'state': {'target': ['5', '1', '9', '10', '11'], 'time': [2110, 3461, 4637, 5943, 7249]}, 'edge': {'target': [], 'time': []}}, 'mouseover': {'state': {'target': ['7', '5', '1', '9', '10', '11'], 'time': [1302, 1483, 2716, 4215, 5462, 6532]}, 'edge': {'target': [], 'time': []}}, 'mouseout': {'state': {'target': ['7', '5', '1', '9', '10'], 'time': [1404, 2682, 3869, 5432, 6522]}, 'edge': {'target': [], 'time': []}}}","[10, -5, 10]","[2131.370000075549, 1170.7399999722838, 12031.770000234246]",2,[],10,"[None, None, None]","['', -5, -10, 5, 10, 5, -10, -5, 10, 10, -5, 10, 5]",190277,[],mouselab-mdp,c1.1,7422421261234896539,5,0,0,0,0
73,7,3,"[14693, 15580, 17504]","['right', 'right', 'up']",training,"['5', '6', '7']","{'click': {'state': {'target': ['5', '1', '9', '10', '6', '7'], 'time': [3916, 5430, 6658, 8414, 10443, 11876]}, 'edge': {'target': [], 'time': []}}, 'mouseover': {'state': {'target': ['11', '0', '1', '5', '1', '9', '10', '0', '6', '7'], 'time': [None, 939, 1252, 1892, 4584, 6200, 7781, 9694, 9759, 11259]}, 'edge': {'target': [], 'time': []}}, 'mouseout': {'state': {'target': ['11', '0', '1', '5', '1', '9', '10', '9', '0', '5', '6'], 'time': [826, 954, 1472, 4318, 5983, 7508, 9678, 9693, 9727, 9742, 11161]}, 'edge': {'target': [], 'time': []}}}","[-5, 5, 10]","[330.57500002905726, 1138.7849999591708, 14691.460000351071]",2,[],4,"[None, None, None]","['', -10, 5, 5, -5, -5, 5, 10, -10, -5, -5, -10, 10]",228298,[],mouselab-mdp,c1.1,6236416765508790471,6,0,0,0,0
74,7,4,"[21131, 21940, 23437]","['left', 'left', 'down']",training,"['9', '10', '12']","{'click': {'state': {'target': ['5', '1', '9', '2', '3', '4', '10', '11', '12', '6', '8'], 'time': [1748, 2951, 4098, 5632, 6975, 8821, 11183, 12679, 13934, 17691, 18809]}, 'edge': {'target': [], 'time': []}}, 'mouseover': {'state': {'target': ['7', '5', '1', '1', '9', '2', '2', '3', '4', '10', '11', '12', '6', '8'], 'time': [None, 1281, 2213, 2563, 3395, 4629, 5013, 6477, 7793, 10691, 11857, 13589, 16599, 18032]}, 'edge': {'target': [], 'time': []}}, 'mouseout': {'state': {'target': ['7', '5', '1', '1', '9', '1', '2', '2', '3', '2', '4', '1', '10', '11', '10', '12', '6'], 'time': [1097, 2199, 2283, 3366, 4578, 4612, 4848, 6429, 7710, 7758, 9669, 10314, 11690, 13157, 13239, 14622, 18021]}, 'edge': {'target': [], 'time': []}}}","[5, 10, -5]","[374.84499998390675, 1412.1050001122057, 21129.285000264645]",2,[],-1,"[None, None, None]","['', 10, -5, -10, -5, -5, 5, 5, -10, 5, 10, -5, -5]",245480,[],mouselab-mdp,c1.1,-8523130848188892674,11,0,0,0,0
75,7,5,"[10097, 10830, 12244]","['up', 'up', 'left']",training,"['1', '2', '4']","{'click': {'state': {'target': ['5', '1', '9', '2', '4'], 'time': [3377, 4521, 5928, 7214, 8269]}, 'edge': {'target': [], 'time': []}}, 'mouseover': {'state': {'target': ['8', '5', '1', '9', '2', '4'], 'time': [None, 2649, 4163, 5315, 6534, 7812]}, 'edge': {'target': [], 'time': []}}, 'mouseout': {'state': {'target': ['8', '5', '1', '9', '1', '2'], 'time': [2599, 3850, 5263, 6478, 6531, 7762]}, 'edge': {'target': [], 'time': []}}}","[10, -5, 10]","[292.4850000999868, 988.4899999015033, 10095.155000220984]",2,[],10,"[None, None, None]","['', 10, -5, -10, 10, -10, 10, 5, -5, -5, -5, 10, -5]",266147,[],mouselab-mdp,c1.1,-1180109183885401005,5,0,0,0,0
76,7,6,"[10131, 10895, 12007]","['right', 'right', 'down']",training,"['5', '6', '8']","{'click': {'state': {'target': ['5', '1', '9', '6', '7', '8'], 'time': [2164, 3801, 4884, 6380, 7497, 8642]}, 'edge': {'target': [], 'time': []}}, 'mouseover': {'state': {'target': ['4', '1', '5', '1', '9', '6', '6', '7', '8'], 'time': [None, 1150, 1545, 2698, 4299, 5578, 5928, 7099, 8110]}, 'edge': {'target': [], 'time': []}}, 'mouseout': {'state': {'target': ['4', '1', '5', '1', '9', '5', '6', '6', '7', '6'], 'time': [1149, 1179, 2631, 4246, 5527, 5577, 5611, 6860, 8043, 8074]}, 'edge': {'target': [], 'time': []}}}","[5, -10, 10]","[219.33999983593822, 899.9900002963841, 10128.19999968633]",2,[],-1,"[None, None, None]","['', -5, -10, 5, -5, 5, -10, 5, 10, -5, 10, -5, -5]",293464,[],mouselab-mdp,c1.1,-5783848652440910710,6,0,0,0,0
77,7,7,"[8951, 9652, 11113]","['up', 'up', 'left']",training,"['1', '2', '4']","{'click': {'state': {'target': ['5', '1', '2', '4'], 'time': [2396, 4069, 5328, 6771]}, 'edge': {'target': [], 'time': []}}, 'mouseover': {'state': {'target': ['8', '6', '5', '1', '1', '2', '4'], 'time': [None, 1737, 1955, 2901, 3188, 4867, 6132]}, 'edge': {'target': [], 'time': []}}, 'mouseout': {'state': {'target': ['8', '6', '5', '1', '1', '2', '4'], 'time': [1507, 1786, 2888, 2968, 4686, 6102, 12296]}, 'edge': {'target': [], 'time': []}}}","[10, -5, 10]","[252.38499976694584, 595.8400000818074, 8949.500000104308]",2,[],11,"[None, None, None]","['', 10, -5, -5, 10, 5, -5, -10, 10, 5, 10, -5, 10]",308217,[],mouselab-mdp,c1.1,1017601537737615534,4,0,0,0,0
78,7,8,"[9291, 10073, 11303]","['left', 'left', 'down']",training,"['9', '10', '12']","{'click': {'state': {'target': ['5', '1', '9', '10', '11', '12'], 'time': [1845, 3070, 4038, 5245, 6361, 7347]}, 'edge': {'target': [], 'time': []}}, 'mouseover': {'state': {'target': ['5', '1', '9', '10', '11', '12'], 'time': [1438, 2352, 3550, 4832, 5797, 6896]}, 'edge': {'target': [], 'time': []}}, 'mouseout': {'state': {'target': ['5', '1', '9', '10', '11', '10'], 'time': [2303, 3486, 4783, 5783, 6819, 6846]}, 'edge': {'target': [], 'time': []}}}","[10, 5, -5]","[185.55000005289912, 946.1250002495944, 9288.7850003317]",2,[],4,"[None, None, None]","['', -5, 10, -10, -10, 5, 5, -5, 5, 10, 5, -5, -5]",323468,[],mouselab-mdp,c1.1,414905543794851947,6,0,0,0,0
79,7,9,"[12031, 12864, 14209]","['left', 'left', 'up']",training,"['9', '10', '11']","{'click': {'state': {'target': ['5', '1', '9', '10', '12', '11'], 'time': [2921, 3884, 4860, 7417, 8818, 10014]}, 'edge': {'target': [], 'time': []}}, 'mouseover': {'state': {'target': ['12', '0', '5', '1', '9', '10', '12', '11'], 'time': [None, 1771, 2521, 3400, 4368, 6284, 8329, 9513]}, 'edge': {'target': [], 'time': []}}, 'mouseout': {'state': {'target': ['12', '0', '5', '1', '9', '10', '12', '11'], 'time': [1472, 1805, 3387, 4319, 5932, 8278, 9462, 10915]}, 'edge': {'target': [], 'time': []}}}","[5, 10, 10]","[273.6700000241399, 722.8500000201166, 12029.650000389665]",2,[],19,"[None, None, None]","['', 5, -5, -10, 5, 5, 10, -10, 10, 5, 10, 10, -10]",336604,[],mouselab-mdp,c1.1,-6971508633356900299,6,0,0,0,0
80,7,10,"[8680, 9355, 10541]","['up', 'up', 'right']",training,"['1', '2', '3']","{'click': {'state': {'target': ['5', '1', '2', '4', '3'], 'time': [2085, 3293, 4728, 5767, 7071]}, 'edge': {'target': [], 'time': []}}, 'mouseover': {'state': {'target': ['9', '0', '5', '1', '2', '4', '3'], 'time': [1253, 1284, 1509, 2682, 4131, 5347, 6530]}, 'edge': {'target': [], 'time': []}}, 'mouseout': {'state': {'target': ['9', '0', '5', '1', '2', '4', '2', '3'], 'time': [1267, 1318, 2649, 4085, 5317, 6318, 6362, 7747]}, 'edge': {'target': [], 'time': []}}}","[10, 5, 5]","[317.6750000566244, 832.630000077188, 8678.199999965727]",2,[],15,"[None, None, None]","['', 10, 5, 5, -10, -10, 10, 5, 5, 10, -5, -10, -10]",350116,[],mouselab-mdp,c1.1,2677707256680226296,5,0,0,0,0
81,7,11,"[17932, 18683, 19989]","['right', 'right', 'up']",training,"['5', '6', '7']","{'click': {'state': {'target': ['5', '1', '9', '10', '6', '7', '8', '11', '12'], 'time': [2241, 5447, 6718, 8241, 9940, 11282, 12829, 14491, 15612]}, 'edge': {'target': [], 'time': []}}, 'mouseover': {'state': {'target': ['6', '5', '1', '9', '10', '6', '7', '8', '11', '12'], 'time': [1639, 1884, 3402, 6079, 7447, 9578, 10894, 11890, 13872, 15122]}, 'edge': {'target': [], 'time': []}}, 'mouseout': {'state': {'target': ['6', '5', '1', '9', '10', '9', '6', '7', '6', '8', '11', '10', '12'], 'time': [1666, 3383, 6031, 7397, 9017, 9042, 10661, 11777, 11823, 13488, 15054, 15087, 16653]}, 'edge': {'target': [], 'time': []}}}","[5, -5, 5]","[158.6850001476705, 678.394999820739, 17929.28000027314]",2,[],-4,"[None, None, None]","['', -5, 10, 10, 5, 5, -5, 5, -10, 5, -5, -5, -5]",366496,[],mouselab-mdp,c1.1,5497153602111003338,9,0,0,0,0
82,7,12,"[17995, 18880, 20339]","['left', 'left', 'up']",training,"['9', '10', '11']","{'click': {'state': {'target': ['5', '1', '9', '10', '11', '12', '2', '4', '3'], 'time': [3141, 4091, 4973, 6489, 7666, 8640, 10425, 11711, 12935]}, 'edge': {'target': [], 'time': []}}, 'mouseover': {'state': {'target': ['5', '1', '9', '10', '11', '12', '2', '4', '3'], 'time': [2634, 3645, 4531, 5810, 7175, 8241, 9793, 11222, 12390]}, 'edge': {'target': [], 'time': []}}, 'mouseout': {'state': {'target': ['5', '1', '9', '10', '11', '10', '12', '9', '2', '4', '2'], 'time': [3613, 4463, 5779, 7161, 8142, 8194, 9607, 9659, 11192, 12290, 12340]}, 'edge': {'target': [], 'time': []}}}","[5, 10, -5]","[247.4549999460578, 785.6200002133846, 17992.749999742955]",2,[],1,"[None, None, None]","['', 5, -10, 10, -5, -5, 5, 10, -5, 5, 10, -5, -5]",379217,[],mouselab-mdp,c1.1,-3477899293060009920,9,0,0,0,0
83,7,13,"[6953, 7702, 8600]","['right', 'right', 'up']",training,"['5', '6', '7']","{'click': {'state': {'target': ['5', '6', '7'], 'time': [2143, 3688, 4904]}, 'edge': {'target': [], 'time': []}}, 'mouseover': {'state': {'target': ['3', '5', '1', '6', '7'], 'time': [None, 1769, 2630, 3216, 4145]}, 'edge': {'target': [], 'time': []}}, 'mouseout': {'state': {'target': ['3', '5', '1', '6', '7', '6'], 'time': [1407, 2616, 2983, 4136, 5763, 9959]}, 'edge': {'target': [], 'time': []}}}","[5, 5, 10]","[378.36499977856874, 937.1999995782971, 6951.195000205189]",2,[],17,"[None, None, None]","['', 10, 10, 10, 10, 5, 5, 10, 5, -5, 5, 5, 5]",402250,[],mouselab-mdp,c1.1,6627999187013791928,3,0,0,0,0
84,7,14,"[13897, 14561, 15614]","['right', 'right', 'up']",training,"['5', '6', '7']","{'click': {'state': {'target': ['9', '1', '2', '4', '3', '5', '6', '7'], 'time': [2579, 4003, 5020, 6116, 7382, 9448, 11448, 12584]}, 'edge': {'target': [], 'time': []}}, 'mouseover': {'state': {'target': ['9', '1', '2', '4', '3', '5', '8', '6', '6', '7'], 'time': [2116, 3532, 4580, 5696, 6712, 8712, 10278, 10594, 10944, 11992]}, 'edge': {'target': [], 'time': []}}, 'mouseout': {'state': {'target': ['9', '1', '2', '4', '2', '3', '5', '8', '6', '6'], 'time': [3501, 4533, 5682, 6664, 6695, 8603, 10081, 10577, 10609, 11948]}, 'edge': {'target': [], 'time': []}}}","[10, 5, 10]","[237.97000013291836, 388.4450001642108, 13895.130000077188]",2,[],17,"[None, None, None]","['', 10, -5, 5, -5, 10, 5, 10, 5, -10, -10, 5, -10]",424898,[],mouselab-mdp,c1.1,-3419255245952545746,8,0,0,0,0
85,7,15,"[22610, 23310, 24360]","['up', 'up', 'left']",training,"['1', '2', '4']","{'click': {'state': {'target': ['5', '6', '7', '8', '1', '2', '3', '4', '9', '10', '11', '12'], 'time': [1435, 2910, 4107, 5154, 6938, 7816, 9051, 10711, 11773, 12799, 13799, 15071]}, 'edge': {'target': [], 'time': []}}, 'mouseover': {'state': {'target': ['7', '5', '6', '7', '8', '0', '1', '2', '3', '4', '4', '9', '10', '11', '12'], 'time': [None, 918, 2300, 3437, 4683, 6066, 6414, 7379, 8547, 9726, 9946, 11261, 12308, 13142, 14608]}, 'edge': {'target': [], 'time': []}}, 'mouseout': {'state': {'target': ['7', '5', '6', '7', '6', '8', '0', '1', '2', '3', '2', '4', '4', '9', '10', '11', '10', '12'], 'time': [876, 2290, 3435, 4516, 4565, 5969, 6153, 7349, 8397, 9660, 9711, 9743, 11127, 12261, 13107, 14228, 14289, 16421]}, 'edge': {'target': [], 'time': []}}}","[5, -5, 5]","[148.6999997869134, 538.755000103265, 22607.454999815673]",2,[],-7,"[None, None, None]","['', 5, -5, -10, 5, 10, -5, -5, -10, -5, -10, -5, 10]",435594,[],mouselab-mdp,c1.1,-3907738530445615459,12,0,0,0,0
86,7,16,"[28896, 29605, 30559]","['right', 'right', 'up']",training,"['5', '6', '7']","{'click': {'state': {'target': ['5', '1', '9', '10', '2', '6', '8', '7', '3', '4', '11', '12'], 'time': [2066, 3923, 5269, 6643, 8393, 9553, 11078, 12183, 13889, 15006, 18563, 20747]}, 'edge': {'target': [], 'time': []}}, 'mouseover': {'state': {'target': ['5', '0', '9', '1', '1', '9', '10', '2', '6', '8', '7', '3', '4', '11', '12'], 'time': [1678, 2542, 2793, 3239, 3559, 4408, 6272, 7920, 9003, 10651, 11627, 13266, 14515, 17924, 20222]}, 'edge': {'target': [], 'time': []}}, 'mouseout': {'state': {'target': ['5', '0', '9', '1', '1', '9', '10', '9', '5', '2', '6', '8', '6', '7', '3', '2', '4', '11', '10', '12'], 'time': [2527, 2573, 3209, 3276, 4373, 6039, 7488, 7521, 7621, 8868, 10318, 11517, 11548, 12882, 14364, 14412, 17495, 20146, 20192, 31847]}, 'edge': {'target': [], 'time': []}}}","[5, -10, -5]","[195.06000028923154, 541.2550000473857, 28893.790000118315]",2,[],-22,"[None, None, None]","['', 5, -10, -5, -10, 5, -10, -5, -10, 5, -10, -5, -5]",453048,[],mouselab-mdp,c1.1,-3161758675468624755,12,0,0,0,0
87,7,17,"[25423, 26221, 27385]","['up', 'up', 'right']",training,"['1', '2', '3']","{'click': {'state': {'target': ['5', '1', '9', '10', '6', '8', '7', '2', '3', '4'], 'time': [4150, 5505, 7960, 9295, 10939, 13392, 14695, 16771, 17906, 19104]}, 'edge': {'target': [], 'time': []}}, 'mouseover': {'state': {'target': ['12', '5', '5', '5', '0', '1', '9', '10', '6', '2', '8', '7', '2', '3', '4'], 'time': [2359, 2608, 2858, 3108, 4675, 4793, 6087, 8549, 10567, 11733, 12863, 14280, 16195, 17391, 18558]}, 'edge': {'target': [], 'time': []}}, 'mouseout': {'state': {'target': ['12', '5', '5', '5', '0', '1', '9', '10', '9', '5', '6', '2', '8', '6', '7', '2', '3', '2', '4', '10', '12'], 'time': [2390, 2642, 3040, 4673, 4687, 6037, 8536, 10153, 10169, 10231, 11383, 12382, 13928, 13981, 16031, 17261, 18493, 18523, 28552, 28598, 28614]}, 'edge': {'target': [], 'time': []}}}","[5, 10, -10]","[190.09000016376376, 441.8000001460314, 25420.429999940097]",2,[],-5,"[None, None, None]","['', 5, 10, -10, -10, 5, -5, 5, -5, 5, -10, 5, -10]",479989,[],mouselab-mdp,c1.1,-5258236874187993063,10,0,0,0,0
88,7,18,"[13292, 13976, 14943]","['up', 'up', 'left']",training,"['1', '2', '4']","{'click': {'state': {'target': ['5', '6', '8', '7', '1', '2', '3', '4'], 'time': [3221, 4656, 5904, 7098, 8076, 8894, 9851, 11046]}, 'edge': {'target': [], 'time': []}}, 'mouseover': {'state': {'target': ['5', '6', '6', '8', '7', '1', '2', '3', '4'], 'time': [2816, 3930, 4247, 5425, 6441, 7624, 8490, 9372, 10405]}, 'edge': {'target': [], 'time': []}}, 'mouseout': {'state': {'target': ['5', '6', '6', '8', '6', '7', '1', '2', '3', '2', '4'], 'time': [3911, 3960, 5380, 6374, 6408, 7524, 8457, 9240, 10337, 10388, 11507]}, 'edge': {'target': [], 'time': []}}}","[5, -5, 10]","[282.51999989151955, 648.4650000929832, 13289.849999826401]",2,[],2,"[None, None, None]","['', 5, -5, 5, 10, 10, -10, -5, -5, 5, -10, 5, 10]",512673,[],mouselab-mdp,c1.1,287659273517348342,8,0,0,0,0
89,7,19,"[11125, 11865, 12798]","['left', 'left', 'up']",training,"['9', '10', '11']","{'click': {'state': {'target': ['5', '1', '9', '10', '12', '11'], 'time': [2923, 4199, 5554, 6891, 8185, 9449]}, 'edge': {'target': [], 'time': []}}, 'mouseover': {'state': {'target': ['8', '5', '1', '9', '9', '10', '12', '12', '11'], 'time': [1777, 2492, 3737, 4787, 5076, 6336, 7468, 7684, 8815]}, 'edge': {'target': [], 'time': []}}, 'mouseout': {'state': {'target': ['8', '5', '1', '9', '9', '10', '12', '12', '10'], 'time': [1791, 3624, 4772, 4839, 6303, 7437, 7535, 8721, 8769]}, 'edge': {'target': [], 'time': []}}}","[10, 5, 5]","[167.30999993160367, 456.840000115335, 11121.42499955371]",2,[],14,"[None, None, None]","['', -10, 5, 10, 5, -10, 5, -5, 5, 10, 5, 5, -5]",542061,[],mouselab-mdp,c1.1,8150121140183900524,6,0,0,0,0
90,7,20,"[23585, 24349, 24974]","['right', 'right', 'up']",training,"['5', '6', '7']","{'click': {'state': {'target': ['5', '6', '7', '8', '9', '1', '2', '3', '10', '11'], 'time': [4199, 5904, 6980, 8606, 10210, 12052, 13449, 14576, 19200, 20227]}, 'edge': {'target': [], 'time': []}}, 'mouseover': {'state': {'target': ['11', '5', '6', '6', '7', '8', '0', '9', '10', '1', '2', '3', '11', '10', '11'], 'time': [None, 3716, 5180, 5481, 6580, 8077, 9360, 9677, 10690, 11442, 12921, 13820, 18102, 18784, 19531]}, 'edge': {'target': [], 'time': []}}, 'mouseout': {'state': {'target': ['11', '5', '6', '6', '7', '6', '8', '0', '9', '10', '9', '1', '2', '3', '2', '11', '10', '11'], 'time': [3234, 5163, 5227, 6527, 7579, 7681, 9292, 9627, 10658, 10925, 11208, 12590, 13773, 18017, 18052, 18152, 19516, 22201]}, 'edge': {'target': [], 'time': []}}}","[10, -5, -5]","[229.95000006631017, 411.8599998764694, 23582.850000355393]",2,[],-10,"[None, None, None]","['', -5, -5, 5, -10, 10, -5, -5, -10, -10, -5, 5, -5]",559237,[],mouselab-mdp,c1.1,-6894841345479573840,10,0,0,0,0
91,7,21,"[11334, 12000, 13087]","['up', 'up', 'left']",training,"['1', '2', '4']","{'click': {'state': {'target': ['5', '1', '9', '2', '3', '4'], 'time': [2110, 3293, 4631, 6025, 7340, 9833]}, 'edge': {'target': [], 'time': []}}, 'mouseover': {'state': {'target': ['5', '1', '9', '2', '2', '3', '4'], 'time': [1709, 2642, 4110, 5356, 5676, 6538, 9238]}, 'edge': {'target': [], 'time': []}}, 'mouseout': {'state': {'target': ['5', '1', '9', '2', '2', '3', '2'], 'time': [2617, 3777, 5309, 5407, 6507, 9138, 9186]}, 'edge': {'target': [], 'time': []}}}","[5, 5, 10]","[250.3599999472499, 108.70000021532178, 11331.710000056773]",2,[],14,"[None, None, None]","['', 5, 5, 5, 10, -5, -5, 10, 10, -10, 10, 5, -10]",573817,[],mouselab-mdp,c1.1,2087369140992358120,6,0,0,0,0
92,7,22,"[5899, 6612, 7491]","['right', 'right', 'up']",training,"['5', '6', '7']","{'click': {'state': {'target': ['5', '6', '7'], 'time': [2026, 3383, 4510]}, 'edge': {'target': [], 'time': []}}, 'mouseover': {'state': {'target': ['4', '2', '5', '6', '7'], 'time': [None, 1032, 1501, 2630, 3896]}, 'edge': {'target': [], 'time': []}}, 'mouseout': {'state': {'target': ['4', '2', '5', '6'], 'time': [1018, 1065, 2616, 3863]}, 'edge': {'target': [], 'time': []}}}","[10, 5, 5]","[146.8850001692772, 570.9549998864532, 5897.65499997884]",2,[],17,"[None, None, None]","['', 5, 5, -10, -10, 10, 5, 5, 5, -5, 10, -5, -10]",600988,[],mouselab-mdp,c1.1,-8869795501651384713,3,0,0,0,0
93,7,23,"[5865, 6626, 7524]","['right', 'right', 'down']",training,"['5', '6', '8']","{'click': {'state': {'target': ['5', '6', '8'], 'time': [1749, 3263, 4299]}, 'edge': {'target': [], 'time': []}}, 'mouseover': {'state': {'target': ['7', '6', '5', '6', '8'], 'time': [None, 1022, 1072, 2584, 3717]}, 'edge': {'target': [], 'time': []}}, 'mouseout': {'state': {'target': ['7', '6', '5', '6'], 'time': [909, 1039, 2556, 3703]}, 'edge': {'target': [], 'time': []}}}","[10, 10, 5]","[197.565000038594, 361.049999948591, 5862.309999763966]",2,[],22,"[None, None, None]","['', -10, -10, -10, 10, 10, 10, -10, 5, 5, -10, -5, 10]",615824,[],mouselab-mdp,c1.1,-6295193560893533809,3,0,0,0,0
94,7,24,"[6954, 7667, 8588]","['right', 'right', 'up']",training,"['5', '6', '7']","{'click': {'state': {'target': ['5', '6', '8', '7'], 'time': [1490, 2706, 3763, 5767]}, 'edge': {'target': [], 'time': []}}, 'mouseover': {'state': {'target': ['8', '5', '6', '8', '7'], 'time': [None, 925, 2021, 3186, 4888]}, 'edge': {'target': [], 'time': []}}, 'mouseout': {'state': {'target': ['8', '5', '6', '8', '6', '7', '0'], 'time': [853, 2010, 3156, 4488, 4553, 10116, 10549]}, 'edge': {'target': [], 'time': []}}}","[10, 10, 5]","[240.91999977827072, 389.4750000908971, 6952.3800001479685]",2,[],21,"[None, None, None]","['', 10, 5, 5, 10, 10, 10, 5, -5, 5, 10, 5, 5]",625238,[],mouselab-mdp,c1.1,3632821025587269967,4,0,0,0,0
95,7,25,"[18576, 19203, 20401]","['up', 'up', 'left']",test,"['1', '2', '4']","{'click': {'state': {'target': ['5', '6', '1', '9', '2', '7', '8', '3', '4'], 'time': [1721, 2827, 6366, 7383, 9338, 11290, 12795, 15218, 17093]}, 'edge': {'target': [], 'time': []}}, 'mouseover': {'state': {'target': ['5', '6', '0', '0', '1', '9', '2', '7', '8', '3', '4'], 'time': [1128, 2306, 4054, 4341, 5887, 6988, 8786, 10768, 12066, 14647, 16642]}, 'edge': {'target': [], 'time': []}}, 'mouseout': {'state': {'target': ['5', '6', '5', '0', '0', '1', '9', '2', '6', '6', '7', '6', '8', '5', '2', '3', '4', '9'], 'time': [2293, 3986, 4040, 4106, 5849, 6906, 8434, 10368, 10466, 10718, 11938, 11983, 14247, 14295, 14365, 16294, 21274, 21371]}, 'edge': {'target': [], 'time': []}}}","[-5, -5, 10]","[197.7550000883639, 403.69000006467104, 18573.409999720752]",2,[],-9,"[None, None, None]","['', -5, -5, 5, 10, 10, -10, -10, -10, -10, 10, 10, 10]",634877,[],mouselab-mdp,c1.1,3866759347579099958,9,0,0,0,0
96,7,26,"[13990, 14648, 15504]","['right', 'right', 'up']",test,"['5', '6', '7']","{'click': {'state': {'target': ['1', '2', '9', '10', '11', '5', '6', '7'], 'time': [1563, 4398, 6429, 7471, 8562, 10706, 11561, 12600]}, 'edge': {'target': [], 'time': []}}, 'mouseover': {'state': {'target': ['0', '1', '5', '5', '2', '0', '9', '10', '11', '0', '5', '6', '6', '5', '6', '7'], 'time': [764, 847, 2495, 3048, 3414, 5445, 5762, 7014, 8091, 9790, 9809, 9839, 10008, 10205, 11120, 12054]}, 'edge': {'target': [], 'time': []}}, 'mouseout': {'state': {'target': ['0', '1', '5', '5', '1', '2', '1', '0', '9', '10', '11', '0', '5', '6', '6', '5', '6', '7', '0'], 'time': [796, 2468, 2565, 3078, 3164, 5352, 5394, 5493, 7010, 8077, 9741, 9807, 9823, 9872, 10174, 11091, 12012, 16847, 17068]}, 'edge': {'target': [], 'time': []}}}","[5, 10, 10]","[107.7250000089407, 689.3649999983609, 13986.200000159442]",2,[],17,"[None, None, None]","['', 5, -5, -5, 5, 5, 10, 10, 5, 10, -10, 10, 5]",646224,[],mouselab-mdp,c1.1,1812949729192026457,8,0,0,0,0
97,7,27,"[9630, 10291, 11427]","['up', 'up', 'right']",test,"['1', '2', '3']","{'click': {'state': {'target': ['5', '1', '9', '2', '3'], 'time': [2158, 3790, 5787, 7142, 8288]}, 'edge': {'target': [], 'time': []}}, 'mouseover': {'state': {'target': ['5', '1', '9', '2', '3'], 'time': [1470, 3222, 5120, 6555, 7706]}, 'edge': {'target': [], 'time': []}}, 'mouseout': {'state': {'target': ['5', '1', '9', '1', '2'], 'time': [3192, 5074, 6472, 6521, 7621]}, 'edge': {'target': [], 'time': []}}}","[5, 10, 5]","[143.26500007882714, 350.2899999730289, 9627.304999623448]",2,[],15,"[None, None, None]","['', 5, 10, 5, 10, -10, 10, -10, -10, -5, -10, -10, 10]",668562,[],mouselab-mdp,c1.1,1527002837571303241,5,0,0,0,0
98,7,28,"[7896, 8667, 9575]","['left', 'left', 'up']",test,"['9', '10', '11']","{'click': {'state': {'target': ['5', '9', '10', '11'], 'time': [2298, 3478, 4933, 6050]}, 'edge': {'target': [], 'time': []}}, 'mouseover': {'state': {'target': ['3', '5', '5', '5', '0', '9', '10', '11'], 'time': [None, 1104, 1437, 1803, 2953, 2983, 4368, 5547]}, 'edge': {'target': [], 'time': []}}, 'mouseout': {'state': {'target': ['3', '5', '5', '5', '0', '9', '10'], 'time': [789, 1221, 1485, 2917, 2967, 3952, 5517]}, 'edge': {'target': [], 'time': []}}}","[5, -10, 10]","[153.25500024482608, 626.8799998797476, 7893.69500009343]",2,[],1,"[None, None, None]","['', -5, 5, -10, 5, -5, -5, 5, -5, 5, -10, 10, 5]",686300,[],mouselab-mdp,c1.1,-9223140426054324916,4,0,0,0,0
99,7,29,"[23713, 24456, 25516]","['up', 'up', 'right']",test,"['1', '2', '3']","{'click': {'state': {'target': ['5', '6', '1', '2', '3', '4', '9', '10', '11', '12', '7', '8'], 'time': [2235, 3807, 5336, 6542, 7899, 9035, 10377, 11745, 12740, 13928, 18771, 20199]}, 'edge': {'target': [], 'time': []}}, 'mouseover': {'state': {'target': ['11', '0', '5', '6', '1', '2', '3', '4', '9', '10', '11', '12', '0', '7', '8', '8'], 'time': [None, 1032, 1315, 3194, 4712, 6078, 7360, 8459, 9841, 11123, 12335, 13352, 17716, 18083, 19378, 19715]}, 'edge': {'target': [], 'time': []}}, 'mouseout': {'state': {'target': ['11', '0', '5', '6', '1', '2', '3', '2', '4', '9', '10', '11', '10', '12', '0', '5', '7', '6', '8'], 'time': [868, 1063, 3177, 4660, 6061, 7327, 8394, 8443, 9692, 11021, 12321, 13290, 13318, 17632, 17733, 18033, 19348, 19362, 19412]}, 'edge': {'target': [], 'time': []}}}","[10, -5, -5]","[254.7199996188283, 394.7350000962615, 23712.03999966383]",2,[],-12,"[None, None, None]","['', 10, -5, -5, -10, 5, -10, -5, 5, 10, -10, -5, -10]",699806,[],mouselab-mdp,c1.1,-2954430571130452544,12,0,0,0,0
100,7,30,"[12551, 13280, 14484]","['left', 'left', 'up']",test,"['9', '10', '11']","{'click': {'state': {'target': ['1', '2', '3', '5', '9', '10', '12', '11'], 'time': [1769, 3036, 4664, 6356, 7781, 8759, 9817, 11206]}, 'edge': {'target': [], 'time': []}}, 'mouseover': {'state': {'target': ['8', '5', '1', '2', '3', '5', '0', '9', '10', '12', '11', '11'], 'time': [None, 1006, 1342, 2455, 4106, 5621, 7136, 7185, 8316, 9267, 10448, 10783]}, 'edge': {'target': [], 'time': []}}, 'mouseout': {'state': {'target': ['8', '5', '1', '2', '3', '5', '0', '9', '10', '12', '10', '11'], 'time': [961, 1109, 2441, 4089, 5569, 7118, 7169, 8289, 9250, 10393, 10414, 10463]}, 'edge': {'target': [], 'time': []}}}","[10, 10, 5]","[225.86000012233853, 536.555000115186, 12549.300000071526]",2,[],17,"[None, None, None]","['', 10, -10, -10, -5, -10, 10, -10, -5, 10, 10, 5, -5]",711445,[],mouselab-mdp,c1.1,-7551434874100481170,8,0,0,0,0
101,7,31,"[13757, 14427, 15602]","['left', 'left', 'down']",test,"['9', '10', '12']","{'click': {'state': {'target': ['5', '9', '10', '1', '2', '11', '12'], 'time': [2161, 3879, 6528, 8013, 8930, 10705, 11910]}, 'edge': {'target': [], 'time': []}}, 'mouseover': {'state': {'target': ['11', '1', '0', '5', '0', '9', '1', '10', '1', '1', '2', '11', '12'], 'time': [None, 985, 1484, 1651, 3180, 3247, 4713, 5947, 7293, 7579, 8481, 10043, 11211]}, 'edge': {'target': [], 'time': []}}, 'mouseout': {'state': {'target': ['11', '1', '0', '5', '0', '9', '1', '10', '1', '1', '2', '11', '10'], 'time': [900, 1119, 1515, 3163, 3197, 4665, 5862, 7261, 7310, 8475, 9991, 11140, 11173]}, 'edge': {'target': [], 'time': []}}}","[5, -10, 10]","[216.5950001217425, 686.4100000821054, 13755.174999590963]",2,[],-2,"[None, None, None]","['', -5, -5, 5, -10, -5, 5, -5, -5, 5, -10, -5, 10]",738688,[],mouselab-mdp,c1.1,-782795021194263072,7,0,0,0,0
102,7,32,"[15243, 15923, 16867]","['up', 'up', 'right']",test,"['1', '2', '3']","{'click': {'state': {'target': ['1', '2', '5', '6', '9', '3'], 'time': [2296, 3584, 5925, 7152, 11099, 13740]}, 'edge': {'target': [], 'time': []}}, 'mouseover': {'state': {'target': ['12', '1', '2', '5', '5', '6', '9', '3'], 'time': [None, 1697, 3127, 4692, 5059, 6658, 10504, 13149]}, 'edge': {'target': [], 'time': []}}, 'mouseout': {'state': {'target': ['12', '1', '2', '1', '5', '5', '6', '5', '9', '1'], 'time': [848, 3078, 4626, 4657, 4723, 6555, 10061, 10105, 13091, 13134]}, 'edge': {'target': [], 'time': []}}}","[10, -10, 10]","[150.93000000342727, 661.6850001737475, 15240.214999765158]",2,[],4,"[None, None, None]","['', 10, -10, 10, 5, 5, -10, -10, 10, -10, -5, 5, 10]",754823,[],mouselab-mdp,c1.1,-7479633459398711011,6,0,0,0,0
103,7,33,"[8357, 8981, 9900]","['up', 'up', 'left']",test,"['1', '2', '4']","{'click': {'state': {'target': ['5', '6', '1', '2', '4'], 'time': [1738, 3151, 4682, 5799, 6875]}, 'edge': {'target': [], 'time': []}}, 'mouseover': {'state': {'target': ['3', '5', '6', '1', '2', '4'], 'time': [None, 1207, 2620, 4088, 5318, 6449]}, 'edge': {'target': [], 'time': []}}, 'mouseout': {'state': {'target': ['3', '5', '6', '1', '2'], 'time': [1043, 2608, 3990, 5290, 6418]}, 'edge': {'target': [], 'time': []}}}","[10, -5, 10]","[170.99000001326203, 429.8950000666082, 8354.509999975562]",2,[],10,"[None, None, None]","['', 10, -5, -5, 10, 5, -10, 10, -10, 5, -10, -10, -10]",772047,[],mouselab-mdp,c1.1,3683435731857920434,5,0,0,0,0
104,7,34,"[10171, 10896, 11912]","['left', 'left', 'up']",test,"['9', '10', '11']","{'click': {'state': {'target': ['5', '1', '9', '10', '11'], 'time': [3411, 4874, 6351, 7297, 8494]}, 'edge': {'target': [], 'time': []}}, 'mouseover': {'state': {'target': ['4', '2', '5', '5', '1', '9', '10', '11'], 'time': [None, 1732, 2231, 2978, 4227, 5544, 6874, 7957]}, 'edge': {'target': [], 'time': []}}, 'mouseout': {'state': {'target': ['4', '2', '5', '5', '1', '9', '10'], 'time': [1549, 1748, 2461, 4199, 5481, 6859, 7928]}, 'edge': {'target': [], 'time': []}}}","[10, -5, 10]","[112.23499989137053, 399.7150002978742, 10168.709999881685]",2,[],10,"[None, None, None]","['', -5, -10, -10, -5, -10, 10, 5, -5, 10, -5, 10, -10]",790774,[],mouselab-mdp,c1.1,-3716099520514771709,5,0,0,0,0
105,9,0,"[20793, 33401, 39626]","['right', 'right', 'up']",training,"['5', '6', '7']","{'click': {'state': {'target': ['5'], 'time': [12025]}, 'edge': {'target': [], 'time': []}}, 'mouseover': {'state': {'target': ['0', '5', '5', '0'], 'time': [5004, 5121, 8439, 18791]}, 'edge': {'target': [], 'time': []}}, 'mouseout': {'state': {'target': ['0', '5', '5', '0', '5', '5', '6', '7'], 'time': [5088, 5152, 16889, 19255, 24952, 25038, 36669, 44602]}, 'edge': {'target': [], 'time': []}}}","[10, -5, -5]","[161785.24999998626, 19316.820000007283, 20372.245000005933]",2,0,-1,"[None, None, None]","['', -5, -5, 5, -10, 10, -5, -5, -10, -10, -5, 5, -5]",161786,[],mouselab-mdp,c1.1,-6894841345479573840,1,0,0,0,0
106,9,1,"[12578, 19744, 28937]","['left', 'left', 'up']",training,"['9', '10', '11']","{'click': {'state': {'target': ['1'], 'time': [8114]}, 'edge': {'target': [], 'time': []}}, 'mouseover': {'state': {'target': ['7', '6', '8', '5', '0', '1'], 'time': [None, 5865, 6187, 6833, 7034, 7634]}, 'edge': {'target': [], 'time': []}}, 'mouseout': {'state': {'target': ['7', '6', '8', '5', '0', '1'], 'time': [2550, 5899, 6731, 6947, 7051, 22647]}, 'edge': {'target': [], 'time': []}}}","[-5, 10, -5]","[28308.61500001629, 67793.91999999643, 21371.910000016214]",2,[],-1,"[None, None, None]","['', -10, 5, -10, 5, 10, 10, -5, -10, -5, 10, -5, 10]",181119,[],mouselab-mdp,c1.1,946869097947028489,1,0,0,0,0
107,9,2,"[24178, 25629, 30884]","['up', 'up', 'right']",training,"['1', '2', '3']","{'click': {'state': {'target': ['5', '1', '2', '3', '4'], 'time': [5024, 6817, 14633, 16138, 22809]}, 'edge': {'target': [], 'time': []}}, 'mouseover': {'state': {'target': ['11', '9', '1', '5', '8', '6', '5', '1', '2', '3', '4'], 'time': [None, 929, 1744, 3178, 3712, 4064, 4297, 6161, 11096, 15577, 19777]}, 'edge': {'target': [], 'time': []}}, 'mouseout': {'state': {'target': ['11', '9', '1', '5', '8', '6', '5', '1', '2', '3', '2'], 'time': [797, 1580, 2463, 3211, 3978, 4178, 5928, 10895, 15494, 19594, 19712]}, 'edge': {'target': [], 'time': []}}}","[10, 10, -5]","[20788.429999985965, 12093.585000024177, 5716.834999999264]",2,[],10,"[None, None, None]","['', 10, 10, -5, -5, 10, -5, 5, 10, -10, -5, 10, -5]",204205,[],mouselab-mdp,c1.1,4878857294870962815,5,0,0,0,0
108,9,3,"[56144, 57244, 58774]","['up', 'up', 'left']",training,"['1', '2', '4']","{'click': {'state': {'target': ['9', '5', '1', '6', '7', '2', '10', '12', '11', '4'], 'time': [5439, 7519, 10310, 12311, 14429, 21179, 24847, 26172, 29063, 35655]}, 'edge': {'target': [], 'time': []}}, 'mouseover': {'state': {'target': ['4', '1', '9', '9', '0', '0', '5', '6', '1', '6', '7', '8', '2', '3', '10', '12', '11', '4', '3'], 'time': [None, 1346, 2877, 5061, 6162, 6328, 6562, 8727, 9961, 11629, 12930, 15710, 17827, 23177, 24543, 25643, 26827, 29994, 49893]}, 'edge': {'target': [], 'time': []}}, 'mouseout': {'state': {'target': ['4', '1', '9', '9', '0', '0', '5', '6', '1', '6', '7', '6', '8', '5', '1', '2', '3', '1', '10', '12', '10', '11', '4', '2'], 'time': [1162, 1411, 4394, 6110, 6179, 6360, 8362, 9528, 11477, 12861, 15044, 15260, 16327, 16461, 17659, 23027, 24079, 24126, 25544, 26642, 26744, 29875, 37759, 37892]}, 'edge': {'target': [], 'time': []}}}","[-5, -10, 10]","[12576.934999990044, 6641.34999999078, 8684.879999986151]",2,[],-15,"[None, None, None]","['', -5, -10, 5, 10, 5, -10, -10, 10, -10, 5, -5, -5]",232516,[],mouselab-mdp,c1.1,-8177337623937778033,10,0,0,0,0
109,9,4,"[11068, 11885, 13414]","['up', 'up', 'right']",training,"['1', '2', '3']","{'click': {'state': {'target': ['1', '2', '3'], 'time': [4161, 7623, 9157]}, 'edge': {'target': [], 'time': []}}, 'mouseover': {'state': {'target': ['3', '1', '2', '3'], 'time': [None, 2118, 5636, 8802]}, 'edge': {'target': [], 'time': []}}, 'mouseout': {'state': {'target': ['3', '1', '2'], 'time': [1734, 5503, 8734]}, 'edge': {'target': [], 'time': []}}}","[10, 5, 5]","[24176.544999994803, 932.0149999985006, 4738.589999993565]",2,[],17,"[None, None, None]","['', 10, 5, 5, -10, -10, 10, 5, 5, 10, -5, -10, -10]",303536,[],mouselab-mdp,c1.1,2677707256680226296,3,0,0,0,0
110,9,5,"[30468, 31209, 31998]","['up', 'up', 'right']",training,"['1', '2', '3']","{'click': {'state': {'target': ['5', '6', '1', '2', '9', '10', '4', '7', '3'], 'time': [4491, 7048, 10166, 11888, 15718, 17384, 21726, 23588, 28132]}, 'edge': {'target': [], 'time': []}}, 'mouseover': {'state': {'target': ['3', '5', '6', '1', '2', '9', '10', '10', '11', '4', '7', '8', '3'], 'time': [None, 2509, 6412, 8494, 11262, 15228, 16494, 17062, 17945, 19577, 23194, 24545, 27461]}, 'edge': {'target': [], 'time': []}}, 'mouseout': {'state': {'target': ['3', '5', '6', '5', '1', '2', '9', '10', '10', '11', '4', '2', '7', '6', '8'], 'time': [2209, 6261, 8079, 8344, 11177, 14043, 16426, 16509, 17859, 19509, 22727, 22810, 24292, 24442, 27176]}, 'edge': {'target': [], 'time': []}}}","[5, -10, 5]","[56144.09000001615, 599.6799999848008, 1013.1450000044424]",2,[],-9,"[None, None, None]","['', 5, -10, 5, -5, 5, -10, -5, 5, -10, 5, 10, -10]",324919,[],mouselab-mdp,c1.1,7231669751605023291,9,0,0,0,0
111,9,6,"[4985, 6243, 8215]","['right', 'right', 'up']",training,"['5', '6', '7']","{'click': {'state': {'target': [], 'time': []}, 'edge': {'target': [], 'time': []}}, 'mouseover': {'state': {'target': ['3', '5'], 'time': [None, 2196]}, 'edge': {'target': [], 'time': []}}, 'mouseout': {'state': {'target': ['3', '5'], 'time': [1545, 4261]}, 'edge': {'target': [], 'time': []}}}","[-10, 5, -5]","[11064.959999988787, 315.5599999881815, 1009.0800000180025]",2,[],-10,"[None, None, None]","['', -10, 5, 10, 5, -10, 5, -5, 5, 10, 5, 5, -5]",372092,[],mouselab-mdp,c1.1,8150121140183900524,0,0,0,0,0
112,9,7,"[19272, 20045, 23081]","['right', 'right', 'up']",training,"['5', '6', '7']","{'click': {'state': {'target': ['1', '2', '9', '10', '11', '12', '5', '6', '7'], 'time': [4353, 6847, 8645, 9518, 10742, 12860, 14637, 17063, 17931]}, 'edge': {'target': [], 'time': []}}, 'mouseover': {'state': {'target': ['1', '2', '9', '1', '2', '9', '10', '11', '12', '12', '0', '5', '6', '7'], 'time': [980, 1580, 3366, 3881, 6132, 8064, 9283, 10396, 11716, 12647, 13665, 13862, 15264, 17581]}, 'edge': {'target': [], 'time': []}}, 'mouseout': {'state': {'target': ['1', '2', '9', '1', '2', '1', '9', '10', '11', '10', '12', '12', '0', '5', '6'], 'time': [1131, 2896, 3762, 5915, 7746, 7882, 9213, 10181, 11597, 11662, 11878, 13146, 13732, 15213, 17479]}, 'edge': {'target': [], 'time': []}}}","[10, 5, 5]","[30467.104999988806, 230.5849999829661, 268.5500000079628]",2,[],11,"[None, None, None]","['', 10, -10, 10, -5, 10, 5, 5, -5, 10, -5, -10, -10]",404545,[],mouselab-mdp,c1.1,-708634087699455823,9,0,0,0,0
113,9,8,"[14248, 15151, 16042]","['right', 'right', 'up']",training,"['5', '6', '7']","{'click': {'state': {'target': ['5', '6'], 'time': [5002, 9232]}, 'edge': {'target': [], 'time': []}}, 'mouseover': {'state': {'target': ['7', '5', '6', '1', '7'], 'time': [None, 3020, 8436, 11220, 12355]}, 'edge': {'target': [], 'time': []}}, 'mouseout': {'state': {'target': ['7', '5', '6', '1'], 'time': [2787, 8368, 10769, 12204]}, 'edge': {'target': [], 'time': []}}}","[5, -10, 5]","[4983.585000009043, 761.8400000210386, 1449.6349999972153]",2,[],-2,"[None, None, None]","['', -5, -10, 5, -5, 5, -10, 5, 10, -5, 10, -5, -5]",438828,[],mouselab-mdp,c1.1,-5783848652440910710,2,0,0,0,0
114,9,9,"[16224, 17282, 19413]","['right', 'right', 'down']",training,"['5', '6', '8']","{'click': {'state': {'target': ['1', '9', '5'], 'time': [8512, 11421, 13241]}, 'edge': {'target': [], 'time': []}}, 'mouseover': {'state': {'target': ['7', '1', '9', '0', '0', '5'], 'time': [None, 3632, 10185, 12080, 12166, 12332]}, 'edge': {'target': [], 'time': []}}, 'mouseout': {'state': {'target': ['7', '1', '9', '0', '0'], 'time': [3049, 9782, 12047, 12097, 12183]}, 'edge': {'target': [], 'time': []}}}","[-5, 5, -10]","[19269.86999998917, 248.08499999926426, 2515.220000001136]",2,[],-13,"[None, None, None]","['', -10, 5, 5, -5, -5, 5, 10, -10, -5, -5, -10, 10]",500780,[],mouselab-mdp,c1.1,6236416765508790471,3,0,0,0,0
115,9,10,"[20011, 20652, 22019]","['up', 'up', 'right']",training,"['1', '2', '3']","{'click': {'state': {'target': ['1'], 'time': [16879]}, 'edge': {'target': [], 'time': []}}, 'mouseover': {'state': {'target': ['5', '1', '1'], 'time': [None, 2854, 4271]}, 'edge': {'target': [], 'time': []}}, 'mouseout': {'state': {'target': ['5', '1', '1'], 'time': [2772, 3021, 17621]}, 'edge': {'target': [], 'time': []}}}","[-5, -10, 5]","[14245.880000002217, 379.1499999933876, 370.2999999804888]",2,[],-11,"[None, None, None]","['', -5, -10, 5, 10, 5, -10, -5, 10, 10, -5, 10, 5]",517139,[],mouselab-mdp,c1.1,7422421261234896539,1,0,0,0,0
116,9,11,"[6539, 7319, 8601]","['right', 'right', 'up']",training,"['5', '6', '7']","{'click': {'state': {'target': ['5', '6', '7'], 'time': [2604, 4157, 5341]}, 'edge': {'target': [], 'time': []}}, 'mouseover': {'state': {'target': ['5', '5', '6', '7'], 'time': [1381, 1900, 3666, 4867]}, 'edge': {'target': [], 'time': []}}, 'mouseout': {'state': {'target': ['5', '5', '6'], 'time': [1533, 3583, 4802]}, 'edge': {'target': [], 'time': []}}}","[10, 5, 5]","[16222.160000004806, 548.4100000176113, 1609.4349999912083]",2,[],17,"[None, None, None]","['', 5, 5, -10, -10, 10, 5, 5, 5, -5, 10, -5, -10]",550878,[],mouselab-mdp,c1.1,-8869795501651384713,3,0,0,0,0
117,9,12,"[4375, 5465, 6753]","['up', 'up', 'right']",training,"['1', '2', '3']","{'click': {'state': {'target': [], 'time': []}, 'edge': {'target': [], 'time': []}}, 'mouseover': {'state': {'target': ['7'], 'time': [None]}, 'edge': {'target': [], 'time': []}}, 'mouseout': {'state': {'target': ['7'], 'time': [1342]}, 'edge': {'target': [], 'time': []}}}","[5, -10, 5]","[20009.625000006054, 128.41000000480562, 845.6899999873713]",2,[],0,"[None, None, None]","['', 5, -10, 5, -5, 10, 10, 10, 10, 10, -10, -10, 5]",561245,[],mouselab-mdp,c1.1,-2168368636003987728,0,0,0,0,0
118,9,13,"[1424, 2534, 4198]","['left', 'left', 'up']",training,"['9', '10', '11']","{'click': {'state': {'target': [], 'time': []}, 'edge': {'target': [], 'time': []}}, 'mouseover': {'state': {'target': [], 'time': []}, 'edge': {'target': [], 'time': []}}, 'mouseout': {'state': {'target': [], 'time': []}, 'edge': {'target': [], 'time': []}}}","[10, 10, 5]","[6537.03000000678, 267.6600000122562, 765.2399999788031]",2,[],25,"[None, None, None]","['', 10, -10, -10, -5, -10, 10, -10, -5, 10, 10, 5, -5]",586290,[],mouselab-mdp,c1.1,-7551434874100481170,0,0,0,0,0
119,9,14,"[2600, 3660, 5016]","['right', 'right', 'up']",training,"['5', '6', '7']","{'click': {'state': {'target': [], 'time': []}, 'edge': {'target': [], 'time': []}}, 'mouseover': {'state': {'target': [], 'time': []}, 'edge': {'target': [], 'time': []}}, 'mouseout': {'state': {'target': [], 'time': []}, 'edge': {'target': [], 'time': []}}}","[5, -5, -5]","[4372.5350000022445, 587.5099999830127, 775.5750000069384]",2,[],-5,"[None, None, None]","['', 10, -5, 5, 10, 5, -5, -5, 5, -10, 10, 5, 10]",604455,[],mouselab-mdp,c1.1,7268211764423054070,0,0,0,0,0
120,9,15,"[970, 1672, 2366]","['up', 'up', 'right']",training,"['1', '2', '3']","{'click': {'state': {'target': [], 'time': []}, 'edge': {'target': [], 'time': []}}, 'mouseover': {'state': {'target': [], 'time': []}, 'edge': {'target': [], 'time': []}}, 'mouseout': {'state': {'target': [], 'time': []}, 'edge': {'target': [], 'time': []}}}","[-5, 10, 10]","[1421.1950000026263, 597.1450000070035, 1145.2850000059698]",2,[],15,"[None, None, None]","['', -5, 10, 10, 5, 5, -5, 5, -10, 5, -5, -5, -5]",625868,[],mouselab-mdp,c1.1,5497153602111003338,0,0,0,0,0
121,9,16,"[3497, 4185, 5543]","['up', 'up', 'left']",training,"['1', '2', '4']","{'click': {'state': {'target': [], 'time': []}, 'edge': {'target': [], 'time': []}}, 'mouseover': {'state': {'target': [], 'time': []}, 'edge': {'target': [], 'time': []}}, 'mouseout': {'state': {'target': [], 'time': []}, 'edge': {'target': [], 'time': []}}}","[5, 5, 10]","[2591.8349999992643, 568.3649999846239, 843.6250000086147]",2,[],20,"[None, None, None]","['', 5, 5, 5, 10, -5, -5, 10, 10, -10, 10, 5, -10]",649835,[],mouselab-mdp,c1.1,2087369140992358120,0,0,0,0,0
122,9,17,"[1391, 2588, 3731]","['right', 'right', 'down']",training,"['5', '6', '8']","{'click': {'state': {'target': [], 'time': []}, 'edge': {'target': [], 'time': []}}, 'mouseover': {'state': {'target': [], 'time': []}, 'edge': {'target': [], 'time': []}}, 'mouseout': {'state': {'target': [], 'time': []}, 'edge': {'target': [], 'time': []}}}","[5, 5, 10]","[967.335000023013, 183.56999999377877, 177.40499999490567]",2,[],20,"[None, None, None]","['', 10, 5, -5, -5, 5, 5, 10, 10, 5, -5, -5, -5]",662055,[],mouselab-mdp,c1.1,-1711934015224181778,0,0,0,0,0
123,9,18,"[2107, 2959, 5024]","['left', 'left', 'up']",training,"['9', '10', '11']","{'click': {'state': {'target': [], 'time': []}, 'edge': {'target': [], 'time': []}}, 'mouseover': {'state': {'target': [], 'time': []}, 'edge': {'target': [], 'time': []}}, 'mouseout': {'state': {'target': [], 'time': []}, 'edge': {'target': [], 'time': []}}}","[10, 10, -5]","[3494.409999984782, 173.49499999545515, 847.8849999955855]",2,[],15,"[None, None, None]","['', -5, -10, -5, 5, 5, 5, -5, 5, 10, 10, -5, -5]",670830,[],mouselab-mdp,c1.1,-3937512532655523332,0,0,0,0,0
124,9,19,"[1830, 2772, 3824]","['up', 'up', 'right']",training,"['1', '2', '3']","{'click': {'state': {'target': [], 'time': []}, 'edge': {'target': [], 'time': []}}, 'mouseover': {'state': {'target': [], 'time': []}, 'edge': {'target': [], 'time': []}}, 'mouseout': {'state': {'target': [], 'time': []}, 'edge': {'target': [], 'time': []}}}","[10, -5, -5]","[1382.7699999965262, 701.4149999886286, 627.4049999774434]",2,[],0,"[None, None, None]","['', 10, -5, -5, 10, 5, -10, 10, -10, 5, -10, -10, -10]",677373,[],mouselab-mdp,c1.1,3683435731857920434,0,0,0,0,0
125,9,20,"[1144, 2060, 3538]","['left', 'left', 'down']",training,"['9', '10', '12']","{'click': {'state': {'target': [], 'time': []}, 'edge': {'target': [], 'time': []}}, 'mouseover': {'state': {'target': [], 'time': []}, 'edge': {'target': [], 'time': []}}, 'mouseout': {'state': {'target': [], 'time': []}, 'edge': {'target': [], 'time': []}}}","[10, -5, 5]","[2103.300000017043, 328.5150000010617, 1544.339999993099]",2,[],10,"[None, None, None]","['', 5, 10, -5, -10, 5, 5, -10, 10, 10, -5, -10, 5]",684490,[],mouselab-mdp,c1.1,8374220102514213583,0,0,0,0,0
126,9,21,"[1351, 2284, 3113]","['up', 'up', 'right']",training,"['1', '2', '3']","{'click': {'state': {'target': [], 'time': []}, 'edge': {'target': [], 'time': []}}, 'mouseover': {'state': {'target': [], 'time': []}, 'edge': {'target': [], 'time': []}}, 'mouseout': {'state': {'target': [], 'time': []}, 'edge': {'target': [], 'time': []}}}","[5, -5, -10]","[1827.1250000107102, 436.134999996284, 538.5549999773502]",2,[],-10,"[None, None, None]","['', 5, -5, -10, 5, 10, -5, -5, -10, -5, -10, -5, 10]",688666,[],mouselab-mdp,c1.1,-3907738530445615459,0,0,0,0,0
127,9,22,"[1096, 2218, 3964]","['left', 'left', 'up']",training,"['9', '10', '11']","{'click': {'state': {'target': [], 'time': []}, 'edge': {'target': [], 'time': []}}, 'mouseover': {'state': {'target': [], 'time': []}, 'edge': {'target': [], 'time': []}}, 'mouseout': {'state': {'target': [], 'time': []}, 'edge': {'target': [], 'time': []}}}","[-10, -5, 10]","[1139.549999992596, 404.9700000032317, 965.3000000107568]",2,[],-5,"[None, None, None]","['', 5, -5, -10, -10, 10, 5, 5, -10, -10, -5, 10, 5]",695906,[],mouselab-mdp,c1.1,4007649613694420024,0,0,0,0,0
128,9,23,"[2473, 3450, 4668]","['right', 'right', 'down']",training,"['5', '6', '8']","{'click': {'state': {'target': [], 'time': []}, 'edge': {'target': [], 'time': []}}, 'mouseover': {'state': {'target': [], 'time': []}, 'edge': {'target': [], 'time': []}}, 'mouseout': {'state': {'target': [], 'time': []}, 'edge': {'target': [], 'time': []}}}","[10, -10, 10]","[1346.400000009453, 437.0000000053551, 315.8849999890663]",2,[],10,"[None, None, None]","['', -5, 10, 10, -5, 10, -10, 10, 10, -10, 10, -5, 5]",701610,[],mouselab-mdp,c1.1,-2335338845607237157,0,0,0,0,0
129,9,24,"[1841, 3103, 5072]","['up', 'up', 'left']",training,"['1', '2', '4']","{'click': {'state': {'target': [], 'time': []}, 'edge': {'target': [], 'time': []}}, 'mouseover': {'state': {'target': [], 'time': []}, 'edge': {'target': [], 'time': []}}, 'mouseout': {'state': {'target': [], 'time': []}, 'edge': {'target': [], 'time': []}}}","[5, 10, -10]","[1093.0149999912828, 600.5400000140071, 1228.579999995418]",2,[],5,"[None, None, None]","['', 5, 10, -10, -10, 5, -5, 5, -5, 5, -10, 5, -10]",708665,[],mouselab-mdp,c1.1,-5258236874187993063,0,0,0,0,0
130,9,25,"[1227, 2721, 4524]","['up', 'up', 'right']",test,"['1', '2', '3']","{'click': {'state': {'target': [], 'time': []}, 'edge': {'target': [], 'time': []}}, 'mouseover': {'state': {'target': [], 'time': []}, 'edge': {'target': [], 'time': []}}, 'mouseout': {'state': {'target': [], 'time': []}, 'edge': {'target': [], 'time': []}}}","[-10, 10, 10]","[2470.4799999890383, 476.5950000146404, 695.1450000051409]",2,[],10,"[None, None, None]","['', -10, 10, 10, 5, -10, -10, 10, 5, -5, 5, 10, -10]",714476,[],mouselab-mdp,c1.1,5437414725336129514,0,0,0,0,0
