success,trial_type,time_elapsed,internal_node_id,view_history,rt,responses,correct,pid,revealed_states,num_clicks_accrued,state_rewards,trial_id,block,trial_index,score,simulation_mode,rewards,path,actions,action_times,queries,displayed_time,trial_time,stimulus,button_pressed
,html-button-response,635191.0,0.0-5.0,,9704,,,2339,,,,,,,,,,,,,,,,The secret code is <strong>HEDGEHOG</strong>. Please press the 'Finish HIT' button once you've copied it down to paste in the original window.,0
,html-button-response,726785.0,0.0-5.0,,27505,,,2336,,,,,,,,,,,,,,,,The secret code is <strong>HEDGEHOG</strong>. Please press the 'Finish HIT' button once you've copied it down to paste in the original window.,0
,html-button-response,792173.0,0.0-5.0,,4077,,,2271,,,,,,,,,,,,,,,,The secret code is <strong>HEDGEHOG</strong>. Please press the 'Finish HIT' button once you've copied it down to paste in the original window.,0
,html-button-response,795512.0,0.0-5.0,,4874,,,2221,,,,,,,,,,,,,,,,The secret code is <strong>HEDGEHOG</strong>. Please press the 'Finish HIT' button once you've copied it down to paste in the original window.,0
,html-button-response,667226.0,0.0-5.0,,13504,,,2210,,,,,,,,,,,,,,,,The secret code is <strong>HEDGEHOG</strong>. Please press the 'Finish HIT' button once you've copied it down to paste in the original window.,0
,html-button-response,695138.0,0.0-5.0,,12855,,,2347,,,,,,,,,,,,,,,,The secret code is <strong>BIGHORN</strong>. Please press the 'Finish HIT' button once you've copied it down to paste in the original window.,0
,html-button-response,999176.0,0.0-5.0,,17112,,,2272,,,,,,,,,,,,,,,,The secret code is <strong>BIGHORN</strong>. Please press the 'Finish HIT' button once you've copied it down to paste in the original window.,0
,html-button-response,655488.0,0.0-5.0,,2866.0,,,2222,,,,,,,,,,,,,,,,The secret code is <strong>BIGHORN</strong>. Please press the 'Finish HIT' button once you've copied it down to paste in the original window.,0
,html-button-response,794201.0,0.0-5.0,,5549,,,2223,,,,,,,,,,,,,,,,The secret code is <strong>BIGHORN</strong>. Please press the 'Finish HIT' button once you've copied it down to paste in the original window.,0
,html-button-response,855194.0,0.0-5.0,,25231,,,2224,,,,,,,,,,,,,,,,The secret code is <strong>BIGHORN</strong>. Please press the 'Finish HIT' button once you've copied it down to paste in the original window.,0
,html-button-response,917794.0,0.0-5.0,,16986,,,2360,,,,,,,,,,,,,,,,The secret code is <strong>CHINCHILLA</strong>. Please press the 'Finish HIT' button once you've copied it down to paste in the original window.,0
,html-button-response,928584.0,0.0-5.0,,6409,,,2348,,,,,,,,,,,,,,,,The secret code is <strong>CHINCHILLA</strong>. Please press the 'Finish HIT' button once you've copied it down to paste in the original window.,0
,html-button-response,1006971.0,0.0-5.0,,35148,,,2273,,,,,,,,,,,,,,,,The secret code is <strong>CHINCHILLA</strong>. Please press the 'Finish HIT' button once you've copied it down to paste in the original window.,0
,html-button-response,1095445.0,0.0-5.0,,5656,,,2225,,,,,,,,,,,,,,,,The secret code is <strong>CHINCHILLA</strong>. Please press the 'Finish HIT' button once you've copied it down to paste in the original window.,0
,html-button-response,743070.0,0.0-5.0,,6542,,,2226,,,,,,,,,,,,,,,,The secret code is <strong>CHINCHILLA</strong>. Please press the 'Finish HIT' button once you've copied it down to paste in the original window.,0
,html-button-response,1029040.0,0.0-5.0,,7024,,,2340,,,,,,,,,,,,,,,,The secret code is <strong>PORCUPINE</strong>. Please press the 'Finish HIT' button once you've copied it down to paste in the original window.,0
,html-button-response,364986.0,0.0-5.0,,5587.0,,,2307,,,,,,,,,,,,,,,,The secret code is <strong>PORCUPINE</strong>. Please press the 'Finish HIT' button once you've copied it down to paste in the original window.,0
,html-button-response,1149225.0,0.0-5.0,,23517,,,2227,,,,,,,,,,,,,,,,The secret code is <strong>PORCUPINE</strong>. Please press the 'Finish HIT' button once you've copied it down to paste in the original window.,0
,html-button-response,965791.0,0.0-5.0,,5639,,,2228,,,,,,,,,,,,,,,,The secret code is <strong>PORCUPINE</strong>. Please press the 'Finish HIT' button once you've copied it down to paste in the original window.,0
,html-button-response,566018.0,0.0-5.0,,7914,,,2211,,,,,,,,,,,,,,,,The secret code is <strong>PORCUPINE</strong>. Please press the 'Finish HIT' button once you've copied it down to paste in the original window.,0
,html-button-response,1286464.0,0.0-5.0,,12909,,,2354,,,,,,,,,,,,,,,,The secret code is <strong>GUANACO</strong>. Please press the 'Finish HIT' button once you've copied it down to paste in the original window.,0
,html-button-response,802460.0,0.0-5.0,,9621,,,2286,,,,,,,,,,,,,,,,The secret code is <strong>GUANACO</strong>. Please press the 'Finish HIT' button once you've copied it down to paste in the original window.,0
,html-button-response,708731.0,0.0-5.0,,3124,,,2287,,,,,,,,,,,,,,,,The secret code is <strong>GUANACO</strong>. Please press the 'Finish HIT' button once you've copied it down to paste in the original window.,0
,html-button-response,869143.0,0.0-5.0,,12365,,,2229,,,,,,,,,,,,,,,,The secret code is <strong>GUANACO</strong>. Please press the 'Finish HIT' button once you've copied it down to paste in the original window.,0
,html-button-response,734599.0,0.0-5.0,,11923,,,2212,,,,,,,,,,,,,,,,The secret code is <strong>GUANACO</strong>. Please press the 'Finish HIT' button once you've copied it down to paste in the original window.,0
,html-button-response,599124.0,0.0-5.0,,4155,,,2322,,,,,,,,,,,,,,,,The secret code is <strong>WALRUS</strong>. Please press the 'Finish HIT' button once you've copied it down to paste in the original window.,0
,html-button-response,749237.0,0.0-5.0,,5885,,,2275,,,,,,,,,,,,,,,,The secret code is <strong>WALRUS</strong>. Please press the 'Finish HIT' button once you've copied it down to paste in the original window.,0
,html-button-response,519587.0,0.0-5.0,,13209,,,2231,,,,,,,,,,,,,,,,The secret code is <strong>WALRUS</strong>. Please press the 'Finish HIT' button once you've copied it down to paste in the original window.,0
,html-button-response,1176872.0,0.0-5.0,,3455,,,2232,,,,,,,,,,,,,,,,The secret code is <strong>WALRUS</strong>. Please press the 'Finish HIT' button once you've copied it down to paste in the original window.,0
,html-button-response,758664.0,0.0-5.0,,8486,,,2233,,,,,,,,,,,,,,,,The secret code is <strong>WALRUS</strong>. Please press the 'Finish HIT' button once you've copied it down to paste in the original window.,0
,html-button-response,641198.0,0.0-5.0,,11241,,,2366,,,,,,,,,,,,,,,,The secret code is <strong>DROMEDARY</strong>. Please press the 'Finish HIT' button once you've copied it down to paste in the original window.,0
,html-button-response,1023296.0,0.0-5.0,,17106,,,2276,,,,,,,,,,,,,,,,The secret code is <strong>DROMEDARY</strong>. Please press the 'Finish HIT' button once you've copied it down to paste in the original window.,0
,html-button-response,410906.0,0.0-5.0,,6180.0,,,195,,,,,,,,,,,,,,,,The secret code is <strong>DROMEDARY</strong>. Please press the 'Finish HIT' button once you've copied it down to paste in the original window.,0
,html-button-response,776239.0,0.0-5.0,,4192,,,2234,,,,,,,,,,,,,,,,The secret code is <strong>DROMEDARY</strong>. Please press the 'Finish HIT' button once you've copied it down to paste in the original window.,0
,html-button-response,799552.0,0.0-5.0,,12188,,,2235,,,,,,,,,,,,,,,,The secret code is <strong>DROMEDARY</strong>. Please press the 'Finish HIT' button once you've copied it down to paste in the original window.,0
,html-button-response,917092.0,0.0-5.0,,6464,,,2361,,,,,,,,,,,,,,,,The secret code is <strong>AOUDAD</strong>. Please press the 'Finish HIT' button once you've copied it down to paste in the original window.,0
,html-button-response,715711.0,0.0-5.0,,6276,,,2323,,,,,,,,,,,,,,,,The secret code is <strong>AOUDAD</strong>. Please press the 'Finish HIT' button once you've copied it down to paste in the original window.,0
,html-button-response,853376.0,0.0-5.0,,14911,,,2277,,,,,,,,,,,,,,,,The secret code is <strong>AOUDAD</strong>. Please press the 'Finish HIT' button once you've copied it down to paste in the original window.,0
,html-button-response,825175.0,0.0-5.0,,12108,,,2236,,,,,,,,,,,,,,,,The secret code is <strong>AOUDAD</strong>. Please press the 'Finish HIT' button once you've copied it down to paste in the original window.,0
,html-button-response,1279914.0,0.0-5.0,,19843,,,2237,,,,,,,,,,,,,,,,The secret code is <strong>AOUDAD</strong>. Please press the 'Finish HIT' button once you've copied it down to paste in the original window.,0
,html-button-response,681910.0,0.0-5.0,,17330,,,2213,,,,,,,,,,,,,,,,The secret code is <strong>AOUDAD</strong>. Please press the 'Finish HIT' button once you've copied it down to paste in the original window.,0
,html-button-response,605347.0,0.0-5.0,,6053,,,2324,,,,,,,,,,,,,,,,The secret code is <strong>WEASEL</strong>. Please press the 'Finish HIT' button once you've copied it down to paste in the original window.,0
,html-button-response,1686568.0,0.0-5.0,,11718,,,2308,,,,,,,,,,,,,,,,The secret code is <strong>WEASEL</strong>. Please press the 'Finish HIT' button once you've copied it down to paste in the original window.,0
,html-button-response,548810.0,0.0-5.0,,2660,,,2288,,,,,,,,,,,,,,,,The secret code is <strong>WEASEL</strong>. Please press the 'Finish HIT' button once you've copied it down to paste in the original window.,0
,html-button-response,707485.0,0.0-5.0,,5006,,,2289,,,,,,,,,,,,,,,,The secret code is <strong>WEASEL</strong>. Please press the 'Finish HIT' button once you've copied it down to paste in the original window.,0
,html-button-response,876787.0,0.0-5.0,,10657,,,2239,,,,,,,,,,,,,,,,The secret code is <strong>WEASEL</strong>. Please press the 'Finish HIT' button once you've copied it down to paste in the original window.,0
,html-button-response,921272.0,0.0-5.0,,16895,,,2349,,,,,,,,,,,,,,,,The secret code is <strong>ROOSTER</strong>. Please press the 'Finish HIT' button once you've copied it down to paste in the original window.,0
,html-button-response,793085.0,0.0-5.0,,10588,,,2325,,,,,,,,,,,,,,,,The secret code is <strong>ROOSTER</strong>. Please press the 'Finish HIT' button once you've copied it down to paste in the original window.,0
,html-button-response,719563.0,0.0-5.0,,4480,,,2240,,,,,,,,,,,,,,,,The secret code is <strong>ROOSTER</strong>. Please press the 'Finish HIT' button once you've copied it down to paste in the original window.,0
,html-button-response,1254066.0,0.0-5.0,,10954,,,2241,,,,,,,,,,,,,,,,The secret code is <strong>ROOSTER</strong>. Please press the 'Finish HIT' button once you've copied it down to paste in the original window.,0
,html-button-response,1096490.0,0.0-5.0,,7987,,,2242,,,,,,,,,,,,,,,,The secret code is <strong>ROOSTER</strong>. Please press the 'Finish HIT' button once you've copied it down to paste in the original window.,0
,html-button-response,2701761.0,0.0-5.0,,7718,,,2328,,,,,,,,,,,,,,,,The secret code is <strong>CIVET</strong>. Please press the 'Finish HIT' button once you've copied it down to paste in the original window.,0
,html-button-response,933779.0,0.0-5.0,,5406,,,2290,,,,,,,,,,,,,,,,The secret code is <strong>CIVET</strong>. Please press the 'Finish HIT' button once you've copied it down to paste in the original window.,0
,html-button-response,616015.0,0.0-5.0,,9507,,,2291,,,,,,,,,,,,,,,,The secret code is <strong>CIVET</strong>. Please press the 'Finish HIT' button once you've copied it down to paste in the original window.,0
,html-button-response,906218.0,0.0-5.0,,10194,,,2243,,,,,,,,,,,,,,,,The secret code is <strong>CIVET</strong>. Please press the 'Finish HIT' button once you've copied it down to paste in the original window.,0
,html-button-response,811859.0,0.0-5.0,,5331,,,2244,,,,,,,,,,,,,,,,The secret code is <strong>CIVET</strong>. Please press the 'Finish HIT' button once you've copied it down to paste in the original window.,0
,html-button-response,1014515.0,0.0-5.0,,19543,,,2355,,,,,,,,,,,,,,,,The secret code is <strong>IGUANA</strong>. Please press the 'Finish HIT' button once you've copied it down to paste in the original window.,0
,html-button-response,1380183.0,0.0-5.0,,10995,,,2351,,,,,,,,,,,,,,,,The secret code is <strong>IGUANA</strong>. Please press the 'Finish HIT' button once you've copied it down to paste in the original window.,0
,html-button-response,1571501.0,0.0-5.0,,4923,,,2278,,,,,,,,,,,,,,,,The secret code is <strong>IGUANA</strong>. Please press the 'Finish HIT' button once you've copied it down to paste in the original window.,0
,html-button-response,315933.0,0.0-5.0,,12704.0,,,2214,,,,,,,,,,,,,,,,The secret code is <strong>IGUANA</strong>. Please press the 'Finish HIT' button once you've copied it down to paste in the original window.,0
,html-button-response,675421.0,0.0-5.0,,4223,,,2215,,,,,,,,,,,,,,,,The secret code is <strong>IGUANA</strong>. Please press the 'Finish HIT' button once you've copied it down to paste in the original window.,0
,html-button-response,697569.0,0.0-5.0,,15130,,,2362,,,,,,,,,,,,,,,,The secret code is <strong>FRUITBAT</strong>. Please press the 'Finish HIT' button once you've copied it down to paste in the original window.,0
,html-button-response,1673151.0,0.0-5.0,,5566.0,,,2292,,,,,,,,,,,,,,,,The secret code is <strong>FRUITBAT</strong>. Please press the 'Finish HIT' button once you've copied it down to paste in the original window.,0
,html-button-response,961051.0,0.0-5.0,,7010,,,2293,,,,,,,,,,,,,,,,The secret code is <strong>FRUITBAT</strong>. Please press the 'Finish HIT' button once you've copied it down to paste in the original window.,0
,html-button-response,1071446.0,0.0-5.0,,16597,,,2245,,,,,,,,,,,,,,,,The secret code is <strong>FRUITBAT</strong>. Please press the 'Finish HIT' button once you've copied it down to paste in the original window.,0
,html-button-response,798671.0,0.0-5.0,,9628,,,2247,,,,,,,,,,,,,,,,The secret code is <strong>FRUITBAT</strong>. Please press the 'Finish HIT' button once you've copied it down to paste in the original window.,0
,html-button-response,995575.0,0.0-5.0,,12081,,,2369,,,,,,,,,,,,,,,,The secret code is <strong>REINDEER</strong>. Please press the 'Finish HIT' button once you've copied it down to paste in the original window.,0
,html-button-response,1005056.0,0.0-5.0,,8570,,,2356,,,,,,,,,,,,,,,,The secret code is <strong>REINDEER</strong>. Please press the 'Finish HIT' button once you've copied it down to paste in the original window.,0
,html-button-response,735315.0,0.0-5.0,,33296,,,2279,,,,,,,,,,,,,,,,The secret code is <strong>REINDEER</strong>. Please press the 'Finish HIT' button once you've copied it down to paste in the original window.,0
,html-button-response,1538478.0,0.0-5.0,,23321,,,2248,,,,,,,,,,,,,,,,The secret code is <strong>REINDEER</strong>. Please press the 'Finish HIT' button once you've copied it down to paste in the original window.,0
,html-button-response,768892.0,0.0-5.0,,3076,,,2249,,,,,,,,,,,,,,,,The secret code is <strong>REINDEER</strong>. Please press the 'Finish HIT' button once you've copied it down to paste in the original window.,0
,html-button-response,590407.0,0.0-5.0,,6296,,,2216,,,,,,,,,,,,,,,,The secret code is <strong>REINDEER</strong>. Please press the 'Finish HIT' button once you've copied it down to paste in the original window.,0
,html-button-response,629059.0,0.0-5.0,,5909,,,2352,,,,,,,,,,,,,,,,The secret code is <strong>BOBCAT</strong>. Please press the 'Finish HIT' button once you've copied it down to paste in the original window.,0
,html-button-response,659774.0,0.0-5.0,,3473,,,2309,,,,,,,,,,,,,,,,The secret code is <strong>BOBCAT</strong>. Please press the 'Finish HIT' button once you've copied it down to paste in the original window.,0
,html-button-response,726386.0,0.0-5.0,,5179,,,2294,,,,,,,,,,,,,,,,The secret code is <strong>BOBCAT</strong>. Please press the 'Finish HIT' button once you've copied it down to paste in the original window.,0
,html-button-response,1404528.0,0.0-5.0,,27847,,,2295,,,,,,,,,,,,,,,,The secret code is <strong>BOBCAT</strong>. Please press the 'Finish HIT' button once you've copied it down to paste in the original window.,0
,html-button-response,616369.0,0.0-5.0,,6028,,,2217,,,,,,,,,,,,,,,,The secret code is <strong>BOBCAT</strong>. Please press the 'Finish HIT' button once you've copied it down to paste in the original window.,0
,html-button-response,831855.0,0.0-5.0,,2870,,,2363,,,,,,,,,,,,,,,,The secret code is <strong>FIELDMOUSE</strong>. Please press the 'Finish HIT' button once you've copied it down to paste in the original window.,0
,html-button-response,775348.0,0.0-5.0,,11160,,,2326,,,,,,,,,,,,,,,,The secret code is <strong>FIELDMOUSE</strong>. Please press the 'Finish HIT' button once you've copied it down to paste in the original window.,0
,html-button-response,1474239.0,0.0-5.0,,15801,,,2310,,,,,,,,,,,,,,,,The secret code is <strong>FIELDMOUSE</strong>. Please press the 'Finish HIT' button once you've copied it down to paste in the original window.,0
,html-button-response,814099.0,0.0-5.0,,6812,,,2296,,,,,,,,,,,,,,,,The secret code is <strong>FIELDMOUSE</strong>. Please press the 'Finish HIT' button once you've copied it down to paste in the original window.,0
,html-button-response,1747133.0,0.0-5.0,,12897,,,2250,,,,,,,,,,,,,,,,The secret code is <strong>FIELDMOUSE</strong>. Please press the 'Finish HIT' button once you've copied it down to paste in the original window.,0
,html-button-response,1008735.0,0.0-5.0,,7906,,,2251,,,,,,,,,,,,,,,,The secret code is <strong>FIELDMOUSE</strong>. Please press the 'Finish HIT' button once you've copied it down to paste in the original window.,0
,html-button-response,758758.0,0.0-5.0,,18016,,,2353,,,,,,,,,,,,,,,,The secret code is <strong>HEDGEHOG</strong>. Please press the 'Finish HIT' button once you've copied it down to paste in the original window.,0
,html-button-response,1225928.0,0.0-5.0,,4238,,,2297,,,,,,,,,,,,,,,,The secret code is <strong>HEDGEHOG</strong>. Please press the 'Finish HIT' button once you've copied it down to paste in the original window.,0
,html-button-response,1017559.0,0.0-5.0,,7368,,,2252,,,,,,,,,,,,,,,,The secret code is <strong>HEDGEHOG</strong>. Please press the 'Finish HIT' button once you've copied it down to paste in the original window.,0
,html-button-response,1064247.0,0.0-5.0,,5791,,,2253,,,,,,,,,,,,,,,,The secret code is <strong>HEDGEHOG</strong>. Please press the 'Finish HIT' button once you've copied it down to paste in the original window.,0
,html-button-response,801241.0,0.0-5.0,,10546,,,2254,,,,,,,,,,,,,,,,The secret code is <strong>HEDGEHOG</strong>. Please press the 'Finish HIT' button once you've copied it down to paste in the original window.,0
,html-button-response,1388709.0,0.0-5.0,,8489,,,2357,,,,,,,,,,,,,,,,The secret code is <strong>BIGHORN</strong>. Please press the 'Finish HIT' button once you've copied it down to paste in the original window.,0
,html-button-response,993181.0,0.0-5.0,,10781,,,2298,,,,,,,,,,,,,,,,The secret code is <strong>BIGHORN</strong>. Please press the 'Finish HIT' button once you've copied it down to paste in the original window.,0
,html-button-response,758582.0,0.0-5.0,,4786,,,2299,,,,,,,,,,,,,,,,The secret code is <strong>BIGHORN</strong>. Please press the 'Finish HIT' button once you've copied it down to paste in the original window.,0
,html-button-response,1041592.0,0.0-5.0,,9265,,,2256,,,,,,,,,,,,,,,,The secret code is <strong>BIGHORN</strong>. Please press the 'Finish HIT' button once you've copied it down to paste in the original window.,0
,html-button-response,712762.0,0.0-5.0,,2781,,,2218,,,,,,,,,,,,,,,,The secret code is <strong>BIGHORN</strong>. Please press the 'Finish HIT' button once you've copied it down to paste in the original window.,0
,html-button-response,889551.0,0.0-5.0,,6816,,,2364,,,,,,,,,,,,,,,,The secret code is <strong>CHINCHILLA</strong>. Please press the 'Finish HIT' button once you've copied it down to paste in the original window.,0
,html-button-response,751675.0,0.0-5.0,,11467,,,2358,,,,,,,,,,,,,,,,The secret code is <strong>CHINCHILLA</strong>. Please press the 'Finish HIT' button once you've copied it down to paste in the original window.,0
,html-button-response,979446.0,0.0-5.0,,27249,,,2300,,,,,,,,,,,,,,,,The secret code is <strong>CHINCHILLA</strong>. Please press the 'Finish HIT' button once you've copied it down to paste in the original window.,0
,html-button-response,825799.0,0.0-5.0,,8051,,,2257,,,,,,,,,,,,,,,,The secret code is <strong>CHINCHILLA</strong>. Please press the 'Finish HIT' button once you've copied it down to paste in the original window.,0
,html-button-response,1068273.0,0.0-5.0,,5689,,,2258,,,,,,,,,,,,,,,,The secret code is <strong>CHINCHILLA</strong>. Please press the 'Finish HIT' button once you've copied it down to paste in the original window.,0
,html-button-response,803960.0,0.0-5.0,,13469,,,2259,,,,,,,,,,,,,,,,The secret code is <strong>CHINCHILLA</strong>. Please press the 'Finish HIT' button once you've copied it down to paste in the original window.,0
,html-button-response,1185212.0,0.0-5.0,,11338,,,2342,,,,,,,,,,,,,,,,The secret code is <strong>PORCUPINE</strong>. Please press the 'Finish HIT' button once you've copied it down to paste in the original window.,0
,html-button-response,710580.0,0.0-5.0,,3889,,,2301,,,,,,,,,,,,,,,,The secret code is <strong>PORCUPINE</strong>. Please press the 'Finish HIT' button once you've copied it down to paste in the original window.,0
,html-button-response,1609567.0,0.0-5.0,,84706,,,2260,,,,,,,,,,,,,,,,The secret code is <strong>PORCUPINE</strong>. Please press the 'Finish HIT' button once you've copied it down to paste in the original window.,0
,html-button-response,674408.0,0.0-5.0,,13356,,,2219,,,,,,,,,,,,,,,,The secret code is <strong>PORCUPINE</strong>. Please press the 'Finish HIT' button once you've copied it down to paste in the original window.,0
,html-button-response,583322.0,0.0-5.0,,3703,,,2220,,,,,,,,,,,,,,,,The secret code is <strong>PORCUPINE</strong>. Please press the 'Finish HIT' button once you've copied it down to paste in the original window.,0
,html-button-response,153500.0,0.0-5.0,,4440.0,,,2337,,,,,,,,,,,,,,,,The secret code is <strong>GUANACO</strong>. Please press the 'Finish HIT' button once you've copied it down to paste in the original window.,0
,html-button-response,1237196.0,0.0-5.0,,10618,,,2312,,,,,,,,,,,,,,,,The secret code is <strong>GUANACO</strong>. Please press the 'Finish HIT' button once you've copied it down to paste in the original window.,0
,html-button-response,670854.0,0.0-5.0,,4670,,,2302,,,,,,,,,,,,,,,,The secret code is <strong>GUANACO</strong>. Please press the 'Finish HIT' button once you've copied it down to paste in the original window.,0
,html-button-response,1254558.0,0.0-5.0,,28311,,,2262,,,,,,,,,,,,,,,,The secret code is <strong>GUANACO</strong>. Please press the 'Finish HIT' button once you've copied it down to paste in the original window.,0
,html-button-response,979420.0,0.0-5.0,,14629,,,2263,,,,,,,,,,,,,,,,The secret code is <strong>GUANACO</strong>. Please press the 'Finish HIT' button once you've copied it down to paste in the original window.,0
,html-button-response,779028.0,0.0-5.0,,27613,,,2338,,,,,,,,,,,,,,,,The secret code is <strong>WALRUS</strong>. Please press the 'Finish HIT' button once you've copied it down to paste in the original window.,0
,html-button-response,683498.0,0.0-5.0,,4971,,,2303,,,,,,,,,,,,,,,,The secret code is <strong>WALRUS</strong>. Please press the 'Finish HIT' button once you've copied it down to paste in the original window.,0
,html-button-response,788967.0,0.0-5.0,,5098,,,2304,,,,,,,,,,,,,,,,The secret code is <strong>WALRUS</strong>. Please press the 'Finish HIT' button once you've copied it down to paste in the original window.,0
,html-button-response,542142.0,0.0-5.0,,2765,,,1762,,,,,,,,,,,,,,,,The secret code is <strong>WALRUS</strong>. Please press the 'Finish HIT' button once you've copied it down to paste in the original window.,0
,html-button-response,806588.0,0.0-5.0,,3133,,,2264,,,,,,,,,,,,,,,,The secret code is <strong>WALRUS</strong>. Please press the 'Finish HIT' button once you've copied it down to paste in the original window.,0
,html-button-response,890892.0,0.0-5.0,,7236,,,2332,,,,,,,,,,,,,,,,The secret code is <strong>DROMEDARY</strong>. Please press the 'Finish HIT' button once you've copied it down to paste in the original window.,0
,html-button-response,809676.0,0.0-5.0,,4997,,,2280,,,,,,,,,,,,,,,,The secret code is <strong>DROMEDARY</strong>. Please press the 'Finish HIT' button once you've copied it down to paste in the original window.,0
,html-button-response,1846369.0,0.0-5.0,,28626,,,2268,,,,,,,,,,,,,,,,The secret code is <strong>DROMEDARY</strong>. Please press the 'Finish HIT' button once you've copied it down to paste in the original window.,0
,html-button-response,801160.0,0.0-5.0,,4220,,,1723,,,,,,,,,,,,,,,,The secret code is <strong>DROMEDARY</strong>. Please press the 'Finish HIT' button once you've copied it down to paste in the original window.,0
,html-button-response,1187423.0,0.0-5.0,,15772,,,2265,,,,,,,,,,,,,,,,The secret code is <strong>DROMEDARY</strong>. Please press the 'Finish HIT' button once you've copied it down to paste in the original window.,0
,html-button-response,735467.0,0.0-5.0,,11009,,,2333,,,,,,,,,,,,,,,,The secret code is <strong>AOUDAD</strong>. Please press the 'Finish HIT' button once you've copied it down to paste in the original window.,0
,html-button-response,782193.0,0.0-5.0,,15234,,,2305,,,,,,,,,,,,,,,,The secret code is <strong>AOUDAD</strong>. Please press the 'Finish HIT' button once you've copied it down to paste in the original window.,0
,html-button-response,706439.0,0.0-5.0,,11466,,,2306,,,,,,,,,,,,,,,,The secret code is <strong>AOUDAD</strong>. Please press the 'Finish HIT' button once you've copied it down to paste in the original window.,0
,html-button-response,1450685.0,0.0-5.0,,5800,,,2281,,,,,,,,,,,,,,,,The secret code is <strong>AOUDAD</strong>. Please press the 'Finish HIT' button once you've copied it down to paste in the original window.,0
,html-button-response,1267076.0,0.0-5.0,,13357,,,2266,,,,,,,,,,,,,,,,The secret code is <strong>AOUDAD</strong>. Please press the 'Finish HIT' button once you've copied it down to paste in the original window.,0
