success,trial_type,time_elapsed,internal_node_id,view_history,rt,responses,correct,pid,revealed_states,num_clicks_accrued,state_rewards,trial_id,block,trial_index,score,simulation_mode,rewards,path,actions,action_times,queries,displayed_time,trial_time,stimulus,button_pressed
,instructions,158591.0,0.0-1.0-0.0,"[{""page_index"":0,""viewing_time"":34552},{""page_index"":1,""viewing_time"":71262},{""page_index"":2,""viewing_time"":19155},{""page_index"":3,""viewing_time"":4241},{""page_index"":4,""viewing_time"":4234},{""page_index"":5,""viewing_time"":4687},{""page_index"":6,""viewing_time"":3654},{""page_index"":7,""viewing_time"":2498}]",144285.0,,,2315,,,,,,,,,,,,,,,,,
,instructions,336756.0,0.0-1.1-0.1,"[{""page_index"":0,""viewing_time"":2281},{""page_index"":1,""viewing_time"":27635},{""page_index"":2,""viewing_time"":10690},{""page_index"":3,""viewing_time"":22343},{""page_index"":4,""viewing_time"":7481},{""page_index"":5,""viewing_time"":20663},{""page_index"":6,""viewing_time"":17770},{""page_index"":7,""viewing_time"":4965}]",113829.0,,,2315,,,,,,,,,,,,,,,,,
,instructions,449330.0,0.0-1.2-0.2,"[{""page_index"":0,""viewing_time"":1403},{""page_index"":1,""viewing_time"":5850},{""page_index"":2,""viewing_time"":2391},{""page_index"":3,""viewing_time"":4055},{""page_index"":4,""viewing_time"":1879},{""page_index"":5,""viewing_time"":1968},{""page_index"":6,""viewing_time"":10436},{""page_index"":7,""viewing_time"":4165}]",32148.0,,,2315,,,,,,,,,,,,,,,,,
,instructions,45727.0,0.0-1.0-0.0,"[{""page_index"":0,""viewing_time"":4262},{""page_index"":1,""viewing_time"":3509},{""page_index"":2,""viewing_time"":1856},{""page_index"":3,""viewing_time"":8178},{""page_index"":4,""viewing_time"":4320},{""page_index"":5,""viewing_time"":5053},{""page_index"":6,""viewing_time"":2225},{""page_index"":7,""viewing_time"":5197}]",34601.0,,,2200,,,,,,,,,,,,,,,,,
,instructions,43301.0,0.0-1.0-0.0,"[{""page_index"":0,""viewing_time"":5726},{""page_index"":1,""viewing_time"":8742},{""page_index"":2,""viewing_time"":6898},{""page_index"":3,""viewing_time"":6780},{""page_index"":4,""viewing_time"":3514},{""page_index"":5,""viewing_time"":2004},{""page_index"":6,""viewing_time"":2050},{""page_index"":7,""viewing_time"":5362}]",41077.0,,,2284,,,,,,,,,,,,,,,,,
,instructions,145144.0,0.0-1.0-0.0,"[{""page_index"":0,""viewing_time"":8610},{""page_index"":1,""viewing_time"":30687},{""page_index"":2,""viewing_time"":19503},{""page_index"":3,""viewing_time"":26659},{""page_index"":4,""viewing_time"":12416},{""page_index"":5,""viewing_time"":14045},{""page_index"":6,""viewing_time"":21352},{""page_index"":7,""viewing_time"":7740}]",141012.0,,,2327,,,,,,,,,,,,,,,,,
,instructions,240721.0,0.0-1.1-0.1,"[{""page_index"":0,""viewing_time"":1539},{""page_index"":1,""viewing_time"":10182},{""page_index"":2,""viewing_time"":9630},{""page_index"":3,""viewing_time"":4292},{""page_index"":4,""viewing_time"":4812},{""page_index"":5,""viewing_time"":8996},{""page_index"":6,""viewing_time"":5464},{""page_index"":7,""viewing_time"":3518}]",48434.0,,,2327,,,,,,,,,,,,,,,,,
,instructions,336844.0,0.0-1.2-0.2,"[{""page_index"":0,""viewing_time"":1609},{""page_index"":1,""viewing_time"":15334},{""page_index"":2,""viewing_time"":10850},{""page_index"":3,""viewing_time"":9594},{""page_index"":4,""viewing_time"":2953},{""page_index"":5,""viewing_time"":3161},{""page_index"":6,""viewing_time"":4146},{""page_index"":7,""viewing_time"":1720}]",49367.0,,,2327,,,,,,,,,,,,,,,,,
,instructions,377142.0,0.0-1.3-0.3,"[{""page_index"":0,""viewing_time"":2788},{""page_index"":1,""viewing_time"":8066},{""page_index"":2,""viewing_time"":922},{""page_index"":3,""viewing_time"":1674},{""page_index"":4,""viewing_time"":1380},{""page_index"":5,""viewing_time"":588},{""page_index"":6,""viewing_time"":1480},{""page_index"":7,""viewing_time"":1326}]",18224.0,,,2327,,,,,,,,,,,,,,,,,
,instructions,401753.0,0.0-3.0-0.0,"[{""page_index"":0,""viewing_time"":11028}]",11028.0,,,2327,,,,,,,,,,,,,,,,,
,instructions,117530.0,0.0-1.0-0.0,"[{""page_index"":0,""viewing_time"":8802},{""page_index"":1,""viewing_time"":21133},{""page_index"":2,""viewing_time"":22327},{""page_index"":3,""viewing_time"":11625},{""page_index"":4,""viewing_time"":11996},{""page_index"":5,""viewing_time"":13146},{""page_index"":6,""viewing_time"":13945},{""page_index"":7,""viewing_time"":9143}]",112118.0,,,2269,,,,,,,,,,,,,,,,,
,instructions,205504.0,0.0-1.1-0.1,"[{""page_index"":0,""viewing_time"":11355},{""page_index"":1,""viewing_time"":6139},{""page_index"":2,""viewing_time"":5800},{""page_index"":3,""viewing_time"":5493},{""page_index"":4,""viewing_time"":6054},{""page_index"":5,""viewing_time"":5204},{""page_index"":6,""viewing_time"":5423},{""page_index"":7,""viewing_time"":3980}]",49448.0,,,2269,,,,,,,,,,,,,,,,,
,instructions,108337.0,0.0-1.0-0.0,"[{""page_index"":0,""viewing_time"":4882},{""page_index"":1,""viewing_time"":17923},{""page_index"":2,""viewing_time"":18592},{""page_index"":3,""viewing_time"":16062},{""page_index"":4,""viewing_time"":10083},{""page_index"":5,""viewing_time"":6865},{""page_index"":6,""viewing_time"":3900},{""page_index"":5,""viewing_time"":5066},{""page_index"":6,""viewing_time"":13308},{""page_index"":7,""viewing_time"":7503}]",104185.0,,,2335,,,,,,,,,,,,,,,,,
,instructions,60587.0,0.0-1.0-0.0,"[{""page_index"":0,""viewing_time"":1095},{""page_index"":1,""viewing_time"":8577},{""page_index"":2,""viewing_time"":5789},{""page_index"":3,""viewing_time"":9498},{""page_index"":4,""viewing_time"":7411},{""page_index"":5,""viewing_time"":10670},{""page_index"":6,""viewing_time"":12614},{""page_index"":7,""viewing_time"":2644}]",58299.0,,,2274,,,,,,,,,,,,,,,,,
,instructions,1301764.0,0.0-1.1-0.1,"[{""page_index"":0,""viewing_time"":1124293},{""page_index"":1,""viewing_time"":11133},{""page_index"":2,""viewing_time"":14548},{""page_index"":3,""viewing_time"":12871},{""page_index"":4,""viewing_time"":8363},{""page_index"":5,""viewing_time"":10820},{""page_index"":6,""viewing_time"":21642},{""page_index"":7,""viewing_time"":1491}]",1205161.0,,,2274,,,,,,,,,,,,,,,,,
,instructions,72627.0,0.0-1.0-0.0,"[{""page_index"":0,""viewing_time"":4455},{""page_index"":1,""viewing_time"":16136},{""page_index"":2,""viewing_time"":8923},{""page_index"":3,""viewing_time"":8908},{""page_index"":4,""viewing_time"":6373},{""page_index"":5,""viewing_time"":4806},{""page_index"":6,""viewing_time"":12459},{""page_index"":7,""viewing_time"":3542}]",65604.0,,,2343,,,,,,,,,,,,,,,,,
,instructions,127649.0,0.0-1.1-0.1,"[{""page_index"":0,""viewing_time"":2347},{""page_index"":1,""viewing_time"":1631},{""page_index"":2,""viewing_time"":1496},{""page_index"":3,""viewing_time"":6988},{""page_index"":4,""viewing_time"":2894},{""page_index"":5,""viewing_time"":5918},{""page_index"":6,""viewing_time"":4997},{""page_index"":7,""viewing_time"":1696}]",27968.0,,,2343,,,,,,,,,,,,,,,,,
,instructions,182735.0,0.0-1.2-0.2,"[{""page_index"":0,""viewing_time"":2028},{""page_index"":1,""viewing_time"":1840},{""page_index"":2,""viewing_time"":2047},{""page_index"":3,""viewing_time"":2734},{""page_index"":4,""viewing_time"":2487},{""page_index"":5,""viewing_time"":6565},{""page_index"":6,""viewing_time"":2031},{""page_index"":7,""viewing_time"":1287}]",21020.0,,,2343,,,,,,,,,,,,,,,,,
,instructions,134978.0,0.0-1.0-0.0,"[{""page_index"":0,""viewing_time"":7730},{""page_index"":1,""viewing_time"":24118},{""page_index"":2,""viewing_time"":24084},{""page_index"":3,""viewing_time"":12562},{""page_index"":4,""viewing_time"":13816},{""page_index"":5,""viewing_time"":31034},{""page_index"":6,""viewing_time"":13907},{""page_index"":7,""viewing_time"":2819}]",130070,,,2201,,,,,,,,,,,,,,,,,
,instructions,222380.0,0.0-1.1-0.1,"[{""page_index"":0,""viewing_time"":1248},{""page_index"":1,""viewing_time"":1398},{""page_index"":2,""viewing_time"":4370},{""page_index"":3,""viewing_time"":25028},{""page_index"":4,""viewing_time"":1958},{""page_index"":5,""viewing_time"":1158},{""page_index"":6,""viewing_time"":1469},{""page_index"":7,""viewing_time"":1641}]",38271,,,2201,,,,,,,,,,,,,,,,,
,instructions,262673.0,0.0-3.0-0.0,"[{""page_index"":0,""viewing_time"":7141}]",7142,,,2201,,,,,,,,,,,,,,,,,
,instructions,70899.0,0.0-1.0-0.0,"[{""page_index"":0,""viewing_time"":1085},{""page_index"":1,""viewing_time"":5602},{""page_index"":2,""viewing_time"":1183},{""page_index"":3,""viewing_time"":1113},{""page_index"":4,""viewing_time"":3880},{""page_index"":5,""viewing_time"":4066},{""page_index"":6,""viewing_time"":1273},{""page_index"":7,""viewing_time"":1097}]",19300.0,,,2316,,,,,,,,,,,,,,,,,
,instructions,80956.0,0.0-1.0-0.0,"[{""page_index"":0,""viewing_time"":8267},{""page_index"":1,""viewing_time"":16245},{""page_index"":2,""viewing_time"":14239},{""page_index"":3,""viewing_time"":10345},{""page_index"":4,""viewing_time"":5043},{""page_index"":5,""viewing_time"":6238},{""page_index"":6,""viewing_time"":11998},{""page_index"":7,""viewing_time"":3357}]",75733.0,,,2285,,,,,,,,,,,,,,,,,
,instructions,94372.0,0.0-1.0-0.0,"[{""page_index"":0,""viewing_time"":5661},{""page_index"":1,""viewing_time"":15003},{""page_index"":2,""viewing_time"":8508},{""page_index"":3,""viewing_time"":12298},{""page_index"":4,""viewing_time"":7508},{""page_index"":5,""viewing_time"":14326},{""page_index"":6,""viewing_time"":17100},{""page_index"":7,""viewing_time"":9356}]",89761.0,,,2202,,,,,,,,,,,,,,,,,
,instructions,156393.0,0.0-1.1-0.1,"[{""page_index"":0,""viewing_time"":3406},{""page_index"":1,""viewing_time"":4670},{""page_index"":2,""viewing_time"":4022},{""page_index"":3,""viewing_time"":2218},{""page_index"":4,""viewing_time"":4694},{""page_index"":5,""viewing_time"":1053},{""page_index"":6,""viewing_time"":1637},{""page_index"":7,""viewing_time"":1524}]",23224.0,,,2202,,,,,,,,,,,,,,,,,
,instructions,187087.0,0.0-1.2-0.2,"[{""page_index"":0,""viewing_time"":980},{""page_index"":1,""viewing_time"":1578},{""page_index"":2,""viewing_time"":1848},{""page_index"":3,""viewing_time"":1454},{""page_index"":4,""viewing_time"":1004},{""page_index"":5,""viewing_time"":1076},{""page_index"":6,""viewing_time"":1376},{""page_index"":7,""viewing_time"":1174}]",10490.0,,,2202,,,,,,,,,,,,,,,,,
,instructions,127489.0,0.0-1.0-0.0,"[{""page_index"":0,""viewing_time"":15273},{""page_index"":1,""viewing_time"":20786},{""page_index"":2,""viewing_time"":11095},{""page_index"":3,""viewing_time"":12709},{""page_index"":4,""viewing_time"":7269},{""page_index"":5,""viewing_time"":2954},{""page_index"":4,""viewing_time"":377},{""page_index"":3,""viewing_time"":1615},{""page_index"":2,""viewing_time"":9867},{""page_index"":3,""viewing_time"":1940},{""page_index"":4,""viewing_time"":2997},{""page_index"":5,""viewing_time"":5753},{""page_index"":6,""viewing_time"":3484},{""page_index"":7,""viewing_time"":3180}]",99299.0,,,2317,,,,,,,,,,,,,,,,,
,instructions,226871.0,0.0-1.1-0.1,"[{""page_index"":0,""viewing_time"":2322},{""page_index"":1,""viewing_time"":2214},{""page_index"":2,""viewing_time"":1462},{""page_index"":3,""viewing_time"":1348},{""page_index"":2,""viewing_time"":2016},{""page_index"":1,""viewing_time"":1488},{""page_index"":0,""viewing_time"":1838},{""page_index"":1,""viewing_time"":13263},{""page_index"":2,""viewing_time"":7035},{""page_index"":3,""viewing_time"":7043},{""page_index"":4,""viewing_time"":4047},{""page_index"":5,""viewing_time"":2444},{""page_index"":4,""viewing_time"":1300},{""page_index"":5,""viewing_time"":1296},{""page_index"":4,""viewing_time"":1840},{""page_index"":5,""viewing_time"":4003},{""page_index"":6,""viewing_time"":2179},{""page_index"":7,""viewing_time"":1192}]",58330.0,,,2317,,,,,,,,,,,,,,,,,
,instructions,161997.0,0.0-1.0-0.0,"[{""page_index"":0,""viewing_time"":15862},{""page_index"":1,""viewing_time"":36749},{""page_index"":2,""viewing_time"":25885},{""page_index"":3,""viewing_time"":26190},{""page_index"":4,""viewing_time"":10033},{""page_index"":5,""viewing_time"":12263},{""page_index"":6,""viewing_time"":15021},{""page_index"":7,""viewing_time"":14335}]",156338.0,,,2203,,,,,,,,,,,,,,,,,
,instructions,261711.0,0.0-1.1-0.1,"[{""page_index"":0,""viewing_time"":3004},{""page_index"":1,""viewing_time"":9349},{""page_index"":2,""viewing_time"":5686},{""page_index"":3,""viewing_time"":11487},{""page_index"":4,""viewing_time"":4799},{""page_index"":5,""viewing_time"":7743},{""page_index"":6,""viewing_time"":12706},{""page_index"":7,""viewing_time"":3216}]",57990.0,,,2203,,,,,,,,,,,,,,,,,
,instructions,136553.0,0.0-1.0-0.0,"[{""page_index"":0,""viewing_time"":5290},{""page_index"":1,""viewing_time"":22097},{""page_index"":2,""viewing_time"":18699},{""page_index"":3,""viewing_time"":13193},{""page_index"":4,""viewing_time"":45867},{""page_index"":5,""viewing_time"":5324},{""page_index"":6,""viewing_time"":9344},{""page_index"":7,""viewing_time"":2388},{""page_index"":6,""viewing_time"":9237},{""page_index"":7,""viewing_time"":1677}]",133117,,,2345,,,,,,,,,,,,,,,,,
,instructions,258560.0,0.0-1.1-0.1,"[{""page_index"":0,""viewing_time"":1256},{""page_index"":1,""viewing_time"":1611},{""page_index"":2,""viewing_time"":1267},{""page_index"":3,""viewing_time"":2575},{""page_index"":2,""viewing_time"":5553},{""page_index"":3,""viewing_time"":7034},{""page_index"":4,""viewing_time"":2065},{""page_index"":5,""viewing_time"":3299},{""page_index"":6,""viewing_time"":1376},{""page_index"":7,""viewing_time"":893}]",26929,,,2345,,,,,,,,,,,,,,,,,
,instructions,288708.0,0.0-3.0-0.0,"[{""page_index"":0,""viewing_time"":3235}]",3235,,,2345,,,,,,,,,,,,,,,,,
,instructions,249422.0,0.0-1.0-0.0,"[{""page_index"":0,""viewing_time"":14973},{""page_index"":1,""viewing_time"":32995},{""page_index"":2,""viewing_time"":3777},{""page_index"":1,""viewing_time"":1211},{""page_index"":2,""viewing_time"":20919},{""page_index"":3,""viewing_time"":19857},{""page_index"":4,""viewing_time"":17867},{""page_index"":5,""viewing_time"":2109},{""page_index"":4,""viewing_time"":2677},{""page_index"":5,""viewing_time"":2093},{""page_index"":4,""viewing_time"":11899},{""page_index"":5,""viewing_time"":24768},{""page_index"":6,""viewing_time"":25552},{""page_index"":7,""viewing_time"":16675}]",197374,,,2329,,,,,,,,,,,,,,,,,
,instructions,350163.0,0.0-1.1-0.1,"[{""page_index"":0,""viewing_time"":3807},{""page_index"":1,""viewing_time"":5592},{""page_index"":2,""viewing_time"":6554},{""page_index"":3,""viewing_time"":3229},{""page_index"":4,""viewing_time"":9311},{""page_index"":5,""viewing_time"":1831},{""page_index"":6,""viewing_time"":3728},{""page_index"":7,""viewing_time"":1378}]",35431,,,2329,,,,,,,,,,,,,,,,,
,instructions,420704.0,0.0-1.2-0.2,"[{""page_index"":0,""viewing_time"":5124},{""page_index"":1,""viewing_time"":6512},{""page_index"":2,""viewing_time"":4517},{""page_index"":3,""viewing_time"":4172},{""page_index"":4,""viewing_time"":4110},{""page_index"":5,""viewing_time"":6246},{""page_index"":6,""viewing_time"":10065},{""page_index"":7,""viewing_time"":2155}]",42902,,,2329,,,,,,,,,,,,,,,,,
,instructions,555636.0,0.0-1.3-0.3,"[{""page_index"":0,""viewing_time"":6858},{""page_index"":1,""viewing_time"":19797},{""page_index"":2,""viewing_time"":7550},{""page_index"":3,""viewing_time"":12722},{""page_index"":4,""viewing_time"":19474},{""page_index"":3,""viewing_time"":9944},{""page_index"":4,""viewing_time"":3620},{""page_index"":5,""viewing_time"":6011},{""page_index"":6,""viewing_time"":20134},{""page_index"":7,""viewing_time"":1598}]",107709,,,2329,,,,,,,,,,,,,,,,,
,instructions,617130.0,0.0-3.0-0.0,"[{""page_index"":0,""viewing_time"":20631}]",20631,,,2329,,,,,,,,,,,,,,,,,
,instructions,437814.0,0.0-1.0-0.0,"[{""page_index"":0,""viewing_time"":5726},{""page_index"":1,""viewing_time"":360520},{""page_index"":2,""viewing_time"":5648},{""page_index"":3,""viewing_time"":26488},{""page_index"":4,""viewing_time"":3308},{""page_index"":5,""viewing_time"":2596},{""page_index"":6,""viewing_time"":1380},{""page_index"":7,""viewing_time"":1104}]",406770.0,,,2346,,,,,,,,,,,,,,,,,
,instructions,123697.0,0.0-1.0-0.0,"[{""page_index"":0,""viewing_time"":8157},{""page_index"":1,""viewing_time"":23847},{""page_index"":2,""viewing_time"":21169},{""page_index"":3,""viewing_time"":14112},{""page_index"":4,""viewing_time"":11744},{""page_index"":5,""viewing_time"":8479},{""page_index"":6,""viewing_time"":16256},{""page_index"":7,""viewing_time"":12664}]",116430.0,,,2319,,,,,,,,,,,,,,,,,
,instructions,173642.0,0.0-1.1-0.1,"[{""page_index"":0,""viewing_time"":3029},{""page_index"":1,""viewing_time"":1718},{""page_index"":2,""viewing_time"":1819},{""page_index"":3,""viewing_time"":2972},{""page_index"":4,""viewing_time"":2593},{""page_index"":5,""viewing_time"":3305},{""page_index"":6,""viewing_time"":2055},{""page_index"":7,""viewing_time"":1776}]",19269.0,,,2319,,,,,,,,,,,,,,,,,
,instructions,233657.0,0.0-1.2-0.2,"[{""page_index"":0,""viewing_time"":3674},{""page_index"":1,""viewing_time"":2199},{""page_index"":2,""viewing_time"":6841},{""page_index"":3,""viewing_time"":1295},{""page_index"":4,""viewing_time"":2257},{""page_index"":5,""viewing_time"":2703},{""page_index"":6,""viewing_time"":4584},{""page_index"":7,""viewing_time"":1401}]",24955.0,,,2319,,,,,,,,,,,,,,,,,
,instructions,122569.0,0.0-1.0-0.0,"[{""page_index"":0,""viewing_time"":7816},{""page_index"":1,""viewing_time"":29707},{""page_index"":2,""viewing_time"":18548},{""page_index"":3,""viewing_time"":12488},{""page_index"":4,""viewing_time"":10058},{""page_index"":5,""viewing_time"":10036},{""page_index"":6,""viewing_time"":18964},{""page_index"":7,""viewing_time"":9746}]",117366.0,,,2330,,,,,,,,,,,,,,,,,
,instructions,288121.0,0.0-1.1-0.1,"[{""page_index"":0,""viewing_time"":6943},{""page_index"":1,""viewing_time"":22893},{""page_index"":2,""viewing_time"":13028},{""page_index"":3,""viewing_time"":14912},{""page_index"":4,""viewing_time"":10632},{""page_index"":5,""viewing_time"":9820},{""page_index"":6,""viewing_time"":17703},{""page_index"":7,""viewing_time"":6422}]",102355.0,,,2330,,,,,,,,,,,,,,,,,
,instructions,376048.0,0.0-1.2-0.2,"[{""page_index"":0,""viewing_time"":1887},{""page_index"":1,""viewing_time"":2349},{""page_index"":2,""viewing_time"":5177},{""page_index"":3,""viewing_time"":7441},{""page_index"":4,""viewing_time"":6287},{""page_index"":5,""viewing_time"":8700},{""page_index"":6,""viewing_time"":15846},{""page_index"":7,""viewing_time"":2448}]",50137.0,,,2330,,,,,,,,,,,,,,,,,
,instructions,12899.0,0.0-1.0-0.0,"[{""page_index"":0,""viewing_time"":950},{""page_index"":1,""viewing_time"":1948},{""page_index"":2,""viewing_time"":792},{""page_index"":3,""viewing_time"":2349},{""page_index"":4,""viewing_time"":1061},{""page_index"":5,""viewing_time"":554},{""page_index"":6,""viewing_time"":1658},{""page_index"":7,""viewing_time"":694}]",10008.0,,,2205,,,,,,,,,,,,,,,,,
,instructions,71797.0,0.0-1.0-0.0,"[{""page_index"":0,""viewing_time"":5627},{""page_index"":1,""viewing_time"":14151},{""page_index"":2,""viewing_time"":9225},{""page_index"":3,""viewing_time"":11564},{""page_index"":4,""viewing_time"":6384},{""page_index"":5,""viewing_time"":7308},{""page_index"":6,""viewing_time"":7676},{""page_index"":7,""viewing_time"":7396}]",69335.0,,,2206,,,,,,,,,,,,,,,,,
,instructions,129784.0,0.0-1.1-0.1,"[{""page_index"":0,""viewing_time"":2973},{""page_index"":1,""viewing_time"":4738},{""page_index"":2,""viewing_time"":6132},{""page_index"":3,""viewing_time"":4310},{""page_index"":4,""viewing_time"":2562},{""page_index"":5,""viewing_time"":1956},{""page_index"":6,""viewing_time"":11687},{""page_index"":7,""viewing_time"":1472}]",35832.0,,,2206,,,,,,,,,,,,,,,,,
,instructions,155545.0,0.0-1.2-0.2,"[{""page_index"":0,""viewing_time"":986},{""page_index"":1,""viewing_time"":1263},{""page_index"":2,""viewing_time"":1104},{""page_index"":3,""viewing_time"":695},{""page_index"":4,""viewing_time"":874},{""page_index"":5,""viewing_time"":592},{""page_index"":6,""viewing_time"":1053},{""page_index"":7,""viewing_time"":817}]",7386.0,,,2206,,,,,,,,,,,,,,,,,
,instructions,127468.0,0.0-1.0-0.0,"[{""page_index"":0,""viewing_time"":12126},{""page_index"":1,""viewing_time"":28829},{""page_index"":2,""viewing_time"":21956},{""page_index"":3,""viewing_time"":8074},{""page_index"":4,""viewing_time"":7439},{""page_index"":5,""viewing_time"":9644},{""page_index"":6,""viewing_time"":25376},{""page_index"":7,""viewing_time"":5558}]",119003.0,,,2320,,,,,,,,,,,,,,,,,
,instructions,20877.0,0.0-1.0-0.0,"[{""page_index"":0,""viewing_time"":1753},{""page_index"":1,""viewing_time"":4567},{""page_index"":2,""viewing_time"":2062},{""page_index"":3,""viewing_time"":1808},{""page_index"":4,""viewing_time"":2254},{""page_index"":5,""viewing_time"":1082},{""page_index"":6,""viewing_time"":1845},{""page_index"":7,""viewing_time"":1551}]",16924.0,,,2341,,,,,,,,,,,,,,,,,
,instructions,160718.0,0.0-1.1-0.1,"[{""page_index"":0,""viewing_time"":3985},{""page_index"":1,""viewing_time"":14511},{""page_index"":2,""viewing_time"":15640},{""page_index"":3,""viewing_time"":14046},{""page_index"":4,""viewing_time"":9566},{""page_index"":5,""viewing_time"":15113},{""page_index"":6,""viewing_time"":14199},{""page_index"":7,""viewing_time"":11845}]",98905.0,,,2341,,,,,,,,,,,,,,,,,
,instructions,109661.0,0.0-1.0-0.0,"[{""page_index"":0,""viewing_time"":7019},{""page_index"":1,""viewing_time"":22090},{""page_index"":2,""viewing_time"":11465},{""page_index"":3,""viewing_time"":11912},{""page_index"":4,""viewing_time"":6851},{""page_index"":5,""viewing_time"":8917},{""page_index"":6,""viewing_time"":13517},{""page_index"":7,""viewing_time"":8710}]",90481.0,,,2255,,,,,,,,,,,,,,,,,
,instructions,20177.0,0.0-1.0-0.0,"[{""page_index"":0,""viewing_time"":3003},{""page_index"":1,""viewing_time"":2185},{""page_index"":2,""viewing_time"":2079},{""page_index"":3,""viewing_time"":2889},{""page_index"":4,""viewing_time"":4312},{""page_index"":5,""viewing_time"":801},{""page_index"":6,""viewing_time"":1261},{""page_index"":7,""viewing_time"":1274}]",17804.0,,,2270,,,,,,,,,,,,,,,,,
,instructions,58768.0,0.0-1.1-0.1,"[{""page_index"":0,""viewing_time"":1531},{""page_index"":1,""viewing_time"":1928},{""page_index"":2,""viewing_time"":1256},{""page_index"":3,""viewing_time"":879},{""page_index"":4,""viewing_time"":1000},{""page_index"":5,""viewing_time"":672},{""page_index"":6,""viewing_time"":1576},{""page_index"":7,""viewing_time"":1209}]",10051.0,,,2270,,,,,,,,,,,,,,,,,
,instructions,74572.0,0.0-1.0-0.0,"[{""page_index"":0,""viewing_time"":1893},{""page_index"":1,""viewing_time"":4550},{""page_index"":2,""viewing_time"":13165},{""page_index"":3,""viewing_time"":1337},{""page_index"":4,""viewing_time"":1641},{""page_index"":5,""viewing_time"":1471},{""page_index"":6,""viewing_time"":45234},{""page_index"":7,""viewing_time"":2340}]",71635.0,,,2261,,,,,,,,,,,,,,,,,
,instructions,131468.0,0.0-1.0-0.0,"[{""page_index"":0,""viewing_time"":11822},{""page_index"":1,""viewing_time"":26867},{""page_index"":2,""viewing_time"":19003},{""page_index"":3,""viewing_time"":16365},{""page_index"":4,""viewing_time"":12412},{""page_index"":5,""viewing_time"":10152},{""page_index"":6,""viewing_time"":18658},{""page_index"":7,""viewing_time"":12019}]",127299.0,,,2207,,,,,,,,,,,,,,,,,
,instructions,246409.0,0.0-1.1-0.1,"[{""page_index"":0,""viewing_time"":5642},{""page_index"":1,""viewing_time"":13194},{""page_index"":2,""viewing_time"":10408},{""page_index"":3,""viewing_time"":14728},{""page_index"":4,""viewing_time"":9824},{""page_index"":5,""viewing_time"":7948},{""page_index"":6,""viewing_time"":12272},{""page_index"":7,""viewing_time"":3168}]",77185.0,,,2207,,,,,,,,,,,,,,,,,
,instructions,390242.0,0.0-1.2-0.2,"[{""page_index"":0,""viewing_time"":2671},{""page_index"":1,""viewing_time"":15530},{""page_index"":2,""viewing_time"":18048},{""page_index"":3,""viewing_time"":17324},{""page_index"":4,""viewing_time"":9786},{""page_index"":5,""viewing_time"":6390},{""page_index"":6,""viewing_time"":18714},{""page_index"":7,""viewing_time"":3410}]",91873.0,,,2207,,,,,,,,,,,,,,,,,
,instructions,478105.0,0.0-1.3-0.3,"[{""page_index"":0,""viewing_time"":2108},{""page_index"":1,""viewing_time"":1856},{""page_index"":2,""viewing_time"":4080},{""page_index"":3,""viewing_time"":2161},{""page_index"":4,""viewing_time"":6983},{""page_index"":5,""viewing_time"":6078},{""page_index"":6,""viewing_time"":13747},{""page_index"":7,""viewing_time"":3504}]",40517.0,,,2207,,,,,,,,,,,,,,,,,
,instructions,512370.0,0.0-3.0-0.0,"[{""page_index"":0,""viewing_time"":9407}]",9407.0,,,2207,,,,,,,,,,,,,,,,,
,instructions,133606.0,0.0-1.0-0.0,"[{""page_index"":0,""viewing_time"":10005},{""page_index"":1,""viewing_time"":29055},{""page_index"":2,""viewing_time"":17808},{""page_index"":3,""viewing_time"":13968},{""page_index"":4,""viewing_time"":8871},{""page_index"":5,""viewing_time"":23312},{""page_index"":6,""viewing_time"":16072},{""page_index"":7,""viewing_time"":9904}]",128995.0,,,2208,,,,,,,,,,,,,,,,,
,instructions,226661.0,0.0-1.1-0.1,"[{""page_index"":0,""viewing_time"":1998},{""page_index"":1,""viewing_time"":5576},{""page_index"":2,""viewing_time"":7424},{""page_index"":3,""viewing_time"":8864},{""page_index"":4,""viewing_time"":6159},{""page_index"":5,""viewing_time"":10953},{""page_index"":6,""viewing_time"":8415},{""page_index"":7,""viewing_time"":2784}]",52174.0,,,2208,,,,,,,,,,,,,,,,,
,instructions,33783.0,0.0-1.0-0.0,"[{""page_index"":0,""viewing_time"":2235},{""page_index"":1,""viewing_time"":2555},{""page_index"":2,""viewing_time"":1941},{""page_index"":3,""viewing_time"":2782},{""page_index"":4,""viewing_time"":8704},{""page_index"":5,""viewing_time"":5844},{""page_index"":6,""viewing_time"":3756},{""page_index"":7,""viewing_time"":2373}]",30191,,,2339,,,,,,,,,,,,,,,,,
,instructions,65476.0,0.0-3.0-0.0,"[{""page_index"":0,""viewing_time"":3330}]",3330,,,2339,,,,,,,,,,,,,,,,,
,instructions,44204.0,0.0-1.0-0.0,"[{""page_index"":0,""viewing_time"":9107},{""page_index"":1,""viewing_time"":4735},{""page_index"":2,""viewing_time"":6154},{""page_index"":3,""viewing_time"":5448},{""page_index"":4,""viewing_time"":3347},{""page_index"":5,""viewing_time"":6058},{""page_index"":6,""viewing_time"":2806},{""page_index"":7,""viewing_time"":3996}]",41652,,,2336,,,,,,,,,,,,,,,,,
,instructions,73971.0,0.0-3.0-0.0,"[{""page_index"":0,""viewing_time"":3739}]",3739,,,2336,,,,,,,,,,,,,,,,,
,instructions,120173.0,0.0-1.0-0.0,"[{""page_index"":0,""viewing_time"":6934},{""page_index"":1,""viewing_time"":11008},{""page_index"":2,""viewing_time"":15376},{""page_index"":3,""viewing_time"":11688},{""page_index"":4,""viewing_time"":9472},{""page_index"":5,""viewing_time"":6575},{""page_index"":6,""viewing_time"":44465},{""page_index"":7,""viewing_time"":9831}]",115350,,,2271,,,,,,,,,,,,,,,,,
,instructions,159397.0,0.0-3.0-0.0,"[{""page_index"":0,""viewing_time"":8211}]",8211,,,2271,,,,,,,,,,,,,,,,,
,instructions,123424.0,0.0-1.0-0.0,"[{""page_index"":0,""viewing_time"":3266},{""page_index"":1,""viewing_time"":17103},{""page_index"":2,""viewing_time"":24251},{""page_index"":3,""viewing_time"":37547},{""page_index"":4,""viewing_time"":9661},{""page_index"":5,""viewing_time"":11515},{""page_index"":6,""viewing_time"":14450},{""page_index"":7,""viewing_time"":2471}]",120264,,,2221,,,,,,,,,,,,,,,,,
,instructions,186734.0,0.0-1.1-0.1,"[{""page_index"":0,""viewing_time"":1497},{""page_index"":1,""viewing_time"":7317},{""page_index"":2,""viewing_time"":3332},{""page_index"":3,""viewing_time"":8263},{""page_index"":4,""viewing_time"":1422},{""page_index"":5,""viewing_time"":890},{""page_index"":6,""viewing_time"":10154},{""page_index"":7,""viewing_time"":1482}]",34357,,,2221,,,,,,,,,,,,,,,,,
,instructions,224425.0,0.0-1.2-0.2,"[{""page_index"":0,""viewing_time"":796},{""page_index"":1,""viewing_time"":1503},{""page_index"":2,""viewing_time"":394},{""page_index"":3,""viewing_time"":1476},{""page_index"":4,""viewing_time"":846},{""page_index"":5,""viewing_time"":878},{""page_index"":4,""viewing_time"":5737},{""page_index"":5,""viewing_time"":468},{""page_index"":6,""viewing_time"":2106},{""page_index"":7,""viewing_time"":822}]",15027,,,2221,,,,,,,,,,,,,,,,,
,instructions,285660.0,0.0-3.0-0.0,"[{""page_index"":0,""viewing_time"":10732}]",10732,,,2221,,,,,,,,,,,,,,,,,
,instructions,77020.0,0.0-1.0-0.0,"[{""page_index"":0,""viewing_time"":16542},{""page_index"":1,""viewing_time"":8130},{""page_index"":2,""viewing_time"":6456},{""page_index"":3,""viewing_time"":6118},{""page_index"":4,""viewing_time"":7374},{""page_index"":5,""viewing_time"":6034},{""page_index"":6,""viewing_time"":8570},{""page_index"":7,""viewing_time"":1972}]",61197,,,2210,,,,,,,,,,,,,,,,,
,instructions,107305.0,0.0-3.0-0.0,"[{""page_index"":0,""viewing_time"":4417}]",4417,,,2210,,,,,,,,,,,,,,,,,
,instructions,123742.0,0.0-1.0-0.0,"[{""page_index"":0,""viewing_time"":10072},{""page_index"":1,""viewing_time"":20484},{""page_index"":2,""viewing_time"":18266},{""page_index"":3,""viewing_time"":13934},{""page_index"":4,""viewing_time"":14908},{""page_index"":5,""viewing_time"":10714},{""page_index"":6,""viewing_time"":20073},{""page_index"":7,""viewing_time"":7376}]",115827,,,2347,,,,,,,,,,,,,,,,,
,instructions,175282.0,0.0-3.0-0.0,"[{""page_index"":0,""viewing_time"":14458}]",14458,,,2347,,,,,,,,,,,,,,,,,
,instructions,86311.0,0.0-1.0-0.0,"[{""page_index"":0,""viewing_time"":6493},{""page_index"":1,""viewing_time"":19052},{""page_index"":2,""viewing_time"":14621},{""page_index"":3,""viewing_time"":12480},{""page_index"":4,""viewing_time"":6692},{""page_index"":5,""viewing_time"":6964},{""page_index"":6,""viewing_time"":11350},{""page_index"":7,""viewing_time"":3912}]",81565,,,2272,,,,,,,,,,,,,,,,,
,instructions,147600.0,0.0-1.1-0.1,"[{""page_index"":0,""viewing_time"":2112},{""page_index"":1,""viewing_time"":3740},{""page_index"":2,""viewing_time"":6030},{""page_index"":3,""viewing_time"":6684},{""page_index"":4,""viewing_time"":3442},{""page_index"":5,""viewing_time"":2258},{""page_index"":6,""viewing_time"":3286},{""page_index"":7,""viewing_time"":2076}]",29628,,,2272,,,,,,,,,,,,,,,,,
,instructions,180124.0,0.0-3.0-0.0,"[{""page_index"":0,""viewing_time"":7864}]",7864,,,2272,,,,,,,,,,,,,,,,,
,instructions,61889.0,0.0-1.0-0.0,"[{""page_index"":0,""viewing_time"":5302},{""page_index"":1,""viewing_time"":11376},{""page_index"":2,""viewing_time"":8352},{""page_index"":3,""viewing_time"":8296},{""page_index"":4,""viewing_time"":5224},{""page_index"":5,""viewing_time"":4864},{""page_index"":6,""viewing_time"":8104},{""page_index"":7,""viewing_time"":7064}]",58583.0,,,2222,,,,,,,,,,,,,,,,,
,instructions,102904.0,0.0-1.1-0.1,"[{""page_index"":0,""viewing_time"":1223},{""page_index"":1,""viewing_time"":3912},{""page_index"":2,""viewing_time"":2552},{""page_index"":3,""viewing_time"":2408},{""page_index"":4,""viewing_time"":2024},{""page_index"":5,""viewing_time"":3808},{""page_index"":6,""viewing_time"":5128},{""page_index"":7,""viewing_time"":1024}]",22079.0,,,2222,,,,,,,,,,,,,,,,,
,instructions,168928.0,0.0-1.2-0.2,"[{""page_index"":0,""viewing_time"":1262},{""page_index"":1,""viewing_time"":2904},{""page_index"":2,""viewing_time"":4568},{""page_index"":3,""viewing_time"":6056},{""page_index"":4,""viewing_time"":2336},{""page_index"":5,""viewing_time"":3872},{""page_index"":6,""viewing_time"":24040},{""page_index"":7,""viewing_time"":1728}]",46766.0,,,2222,,,,,,,,,,,,,,,,,
,instructions,306400.0,0.0-1.3-0.3,"[{""page_index"":0,""viewing_time"":2342},{""page_index"":1,""viewing_time"":3320},{""page_index"":2,""viewing_time"":5552},{""page_index"":3,""viewing_time"":23968},{""page_index"":4,""viewing_time"":3832},{""page_index"":5,""viewing_time"":5920},{""page_index"":6,""viewing_time"":7760},{""page_index"":7,""viewing_time"":1560}]",54254.0,,,2222,,,,,,,,,,,,,,,,,
,instructions,119204.0,0.0-1.0-0.0,"[{""page_index"":0,""viewing_time"":7571},{""page_index"":1,""viewing_time"":25568},{""page_index"":2,""viewing_time"":18129},{""page_index"":3,""viewing_time"":12145},{""page_index"":4,""viewing_time"":9841},{""page_index"":5,""viewing_time"":8639},{""page_index"":6,""viewing_time"":4884},{""page_index"":5,""viewing_time"":3305},{""page_index"":6,""viewing_time"":17266},{""page_index"":7,""viewing_time"":6897}]",114246,,,2223,,,,,,,,,,,,,,,,,
,instructions,171863.0,0.0-1.1-0.1,"[{""page_index"":0,""viewing_time"":1501},{""page_index"":1,""viewing_time"":6936},{""page_index"":2,""viewing_time"":5628},{""page_index"":3,""viewing_time"":5844},{""page_index"":4,""viewing_time"":3431},{""page_index"":5,""viewing_time"":979},{""page_index"":6,""viewing_time"":3120},{""page_index"":7,""viewing_time"":2419}]",29858,,,2223,,,,,,,,,,,,,,,,,
,instructions,201306.0,0.0-3.0-0.0,"[{""page_index"":0,""viewing_time"":13315}]",13315,,,2223,,,,,,,,,,,,,,,,,
,instructions,179847.0,0.0-1.0-0.0,"[{""page_index"":0,""viewing_time"":7931},{""page_index"":1,""viewing_time"":31272},{""page_index"":2,""viewing_time"":23201},{""page_index"":3,""viewing_time"":18196},{""page_index"":4,""viewing_time"":22067},{""page_index"":5,""viewing_time"":27753},{""page_index"":6,""viewing_time"":33592},{""page_index"":7,""viewing_time"":9173}]",173186,,,2224,,,,,,,,,,,,,,,,,
,instructions,237097.0,0.0-3.0-0.0,"[{""page_index"":0,""viewing_time"":16315}]",16316,,,2224,,,,,,,,,,,,,,,,,
,instructions,92065.0,0.0-1.0-0.0,"[{""page_index"":0,""viewing_time"":4055},{""page_index"":1,""viewing_time"":28079},{""page_index"":2,""viewing_time"":10502},{""page_index"":3,""viewing_time"":11725},{""page_index"":4,""viewing_time"":6377},{""page_index"":5,""viewing_time"":4131},{""page_index"":6,""viewing_time"":21835},{""page_index"":7,""viewing_time"":3026}]",89731,,,2360,,,,,,,,,,,,,,,,,
,instructions,179928.0,0.0-1.1-0.1,"[{""page_index"":0,""viewing_time"":3598},{""page_index"":1,""viewing_time"":7995},{""page_index"":2,""viewing_time"":15160},{""page_index"":3,""viewing_time"":9097},{""page_index"":4,""viewing_time"":4998},{""page_index"":5,""viewing_time"":2062},{""page_index"":6,""viewing_time"":7236},{""page_index"":7,""viewing_time"":1106}]",51253,,,2360,,,,,,,,,,,,,,,,,
,instructions,234758.0,0.0-1.2-0.2,"[{""page_index"":0,""viewing_time"":3077},{""page_index"":1,""viewing_time"":9641},{""page_index"":2,""viewing_time"":5190},{""page_index"":3,""viewing_time"":5286},{""page_index"":4,""viewing_time"":2045},{""page_index"":5,""viewing_time"":6260},{""page_index"":6,""viewing_time"":2956},{""page_index"":7,""viewing_time"":947}]",35403,,,2360,,,,,,,,,,,,,,,,,
,instructions,352618.0,0.0-1.3-0.3,"[{""page_index"":0,""viewing_time"":5847},{""page_index"":1,""viewing_time"":13518},{""page_index"":2,""viewing_time"":13168},{""page_index"":3,""viewing_time"":14635},{""page_index"":4,""viewing_time"":5457},{""page_index"":5,""viewing_time"":10172},{""page_index"":6,""viewing_time"":18773},{""page_index"":7,""viewing_time"":2150}]",83721,,,2360,,,,,,,,,,,,,,,,,
,instructions,411296.0,0.0-3.0-0.0,"[{""page_index"":0,""viewing_time"":4092}]",4092,,,2360,,,,,,,,,,,,,,,,,
,instructions,92075.0,0.0-1.0-0.0,"[{""page_index"":0,""viewing_time"":6127},{""page_index"":1,""viewing_time"":14521},{""page_index"":2,""viewing_time"":11394},{""page_index"":3,""viewing_time"":16114},{""page_index"":4,""viewing_time"":9114},{""page_index"":5,""viewing_time"":10498},{""page_index"":6,""viewing_time"":12451},{""page_index"":7,""viewing_time"":8774}]",88994,,,2348,,,,,,,,,,,,,,,,,
,instructions,228621.0,0.0-1.1-0.1,"[{""page_index"":0,""viewing_time"":17235},{""page_index"":1,""viewing_time"":9959},{""page_index"":2,""viewing_time"":8952},{""page_index"":3,""viewing_time"":9886},{""page_index"":4,""viewing_time"":7954},{""page_index"":5,""viewing_time"":6846},{""page_index"":6,""viewing_time"":21736},{""page_index"":7,""viewing_time"":2787}]",85356,,,2348,,,,,,,,,,,,,,,,,
,instructions,259308.0,0.0-3.0-0.0,"[{""page_index"":0,""viewing_time"":9053}]",9053,,,2348,,,,,,,,,,,,,,,,,
,instructions,100213.0,0.0-1.0-0.0,"[{""page_index"":0,""viewing_time"":4554},{""page_index"":1,""viewing_time"":16846},{""page_index"":2,""viewing_time"":18474},{""page_index"":3,""viewing_time"":13167},{""page_index"":4,""viewing_time"":11118},{""page_index"":5,""viewing_time"":8408},{""page_index"":6,""viewing_time"":13460},{""page_index"":7,""viewing_time"":10804}]",96832,,,2273,,,,,,,,,,,,,,,,,
,instructions,223097.0,0.0-1.1-0.1,"[{""page_index"":0,""viewing_time"":5704},{""page_index"":1,""viewing_time"":11844},{""page_index"":2,""viewing_time"":7984},{""page_index"":3,""viewing_time"":12062},{""page_index"":4,""viewing_time"":8626},{""page_index"":5,""viewing_time"":8108},{""page_index"":6,""viewing_time"":30540},{""page_index"":7,""viewing_time"":3023}]",87892,,,2273,,,,,,,,,,,,,,,,,
,instructions,277339.0,0.0-3.0-0.0,"[{""page_index"":0,""viewing_time"":6516}]",6517,,,2273,,,,,,,,,,,,,,,,,
,instructions,206275.0,0.0-1.0-0.0,"[{""page_index"":0,""viewing_time"":13894},{""page_index"":1,""viewing_time"":25840},{""page_index"":2,""viewing_time"":17829},{""page_index"":3,""viewing_time"":19158},{""page_index"":4,""viewing_time"":15213},{""page_index"":5,""viewing_time"":13736},{""page_index"":6,""viewing_time"":81848},{""page_index"":7,""viewing_time"":12403}]",199923,,,2225,,,,,,,,,,,,,,,,,
,instructions,295377.0,0.0-1.1-0.1,"[{""page_index"":0,""viewing_time"":4181},{""page_index"":1,""viewing_time"":7487},{""page_index"":2,""viewing_time"":8063},{""page_index"":3,""viewing_time"":5356},{""page_index"":4,""viewing_time"":7012},{""page_index"":5,""viewing_time"":5186},{""page_index"":6,""viewing_time"":3725},{""page_index"":7,""viewing_time"":3162}]",44175,,,2225,,,,,,,,,,,,,,,,,
,instructions,345008.0,0.0-1.2-0.2,"[{""page_index"":0,""viewing_time"":1759},{""page_index"":1,""viewing_time"":1925},{""page_index"":2,""viewing_time"":668},{""page_index"":3,""viewing_time"":1357},{""page_index"":4,""viewing_time"":917},{""page_index"":5,""viewing_time"":5860},{""page_index"":6,""viewing_time"":2114},{""page_index"":7,""viewing_time"":1377}]",15980,,,2225,,,,,,,,,,,,,,,,,
,instructions,424747.0,0.0-1.3-0.3,"[{""page_index"":0,""viewing_time"":1472},{""page_index"":1,""viewing_time"":4771},{""page_index"":2,""viewing_time"":9883},{""page_index"":3,""viewing_time"":6387},{""page_index"":4,""viewing_time"":3803},{""page_index"":5,""viewing_time"":3889},{""page_index"":6,""viewing_time"":1854},{""page_index"":7,""viewing_time"":1528}]",33589,,,2225,,,,,,,,,,,,,,,,,
,instructions,482877.0,0.0-3.0-0.0,"[{""page_index"":0,""viewing_time"":25000}]",25000,,,2225,,,,,,,,,,,,,,,,,
,instructions,132059.0,0.0-1.0-0.0,"[{""page_index"":0,""viewing_time"":5366},{""page_index"":1,""viewing_time"":20135},{""page_index"":2,""viewing_time"":15025},{""page_index"":3,""viewing_time"":24699},{""page_index"":4,""viewing_time"":16978},{""page_index"":5,""viewing_time"":13661},{""page_index"":6,""viewing_time"":20986},{""page_index"":7,""viewing_time"":8165}]",125017,,,2226,,,,,,,,,,,,,,,,,
,instructions,171519.0,0.0-3.0-0.0,"[{""page_index"":0,""viewing_time"":18645}]",18645,,,2226,,,,,,,,,,,,,,,,,
,instructions,99272.0,0.0-1.0-0.0,"[{""page_index"":0,""viewing_time"":10723},{""page_index"":1,""viewing_time"":16789},{""page_index"":2,""viewing_time"":15188},{""page_index"":3,""viewing_time"":7228},{""page_index"":4,""viewing_time"":12310},{""page_index"":5,""viewing_time"":8778},{""page_index"":6,""viewing_time"":20847},{""page_index"":7,""viewing_time"":3541}]",95405,,,2340,,,,,,,,,,,,,,,,,
,instructions,195260.0,0.0-1.1-0.1,"[{""page_index"":0,""viewing_time"":4013},{""page_index"":1,""viewing_time"":2740},{""page_index"":2,""viewing_time"":9983},{""page_index"":3,""viewing_time"":10142},{""page_index"":4,""viewing_time"":10076},{""page_index"":5,""viewing_time"":4292},{""page_index"":6,""viewing_time"":15181},{""page_index"":7,""viewing_time"":3351}]",59779,,,2340,,,,,,,,,,,,,,,,,
,instructions,237826.0,0.0-3.0-0.0,"[{""page_index"":0,""viewing_time"":5825}]",5826,,,2340,,,,,,,,,,,,,,,,,
,instructions,91798.0,0.0-1.0-0.0,"[{""page_index"":0,""viewing_time"":6446},{""page_index"":1,""viewing_time"":13639},{""page_index"":2,""viewing_time"":10729},{""page_index"":3,""viewing_time"":10303},{""page_index"":4,""viewing_time"":13512},{""page_index"":5,""viewing_time"":12808},{""page_index"":6,""viewing_time"":12456},{""page_index"":7,""viewing_time"":7680}]",87573.0,,,2307,,,,,,,,,,,,,,,,,
,instructions,193316.0,0.0-1.1-0.1,"[{""page_index"":0,""viewing_time"":2774},{""page_index"":1,""viewing_time"":11255},{""page_index"":2,""viewing_time"":9009},{""page_index"":3,""viewing_time"":9655},{""page_index"":4,""viewing_time"":8208},{""page_index"":5,""viewing_time"":3121},{""page_index"":6,""viewing_time"":9968},{""page_index"":7,""viewing_time"":1903}]",55894.0,,,2307,,,,,,,,,,,,,,,,,
,instructions,233467.0,0.0-1.2-0.2,"[{""page_index"":0,""viewing_time"":3557},{""page_index"":1,""viewing_time"":9880},{""page_index"":2,""viewing_time"":1568},{""page_index"":3,""viewing_time"":1152},{""page_index"":4,""viewing_time"":847},{""page_index"":5,""viewing_time"":937},{""page_index"":6,""viewing_time"":1240},{""page_index"":7,""viewing_time"":1039}]",20221.0,,,2307,,,,,,,,,,,,,,,,,
,instructions,290706.0,0.0-1.3-0.3,"[{""page_index"":0,""viewing_time"":1293},{""page_index"":1,""viewing_time"":6816},{""page_index"":2,""viewing_time"":8231},{""page_index"":3,""viewing_time"":8576},{""page_index"":4,""viewing_time"":6656},{""page_index"":5,""viewing_time"":1264},{""page_index"":6,""viewing_time"":6704},{""page_index"":7,""viewing_time"":1632}]",41172.0,,,2307,,,,,,,,,,,,,,,,,
,instructions,43140.0,0.0-1.0-0.0,"[{""page_index"":0,""viewing_time"":7177},{""page_index"":1,""viewing_time"":4569},{""page_index"":2,""viewing_time"":5059},{""page_index"":3,""viewing_time"":1785},{""page_index"":4,""viewing_time"":8868},{""page_index"":5,""viewing_time"":4682},{""page_index"":6,""viewing_time"":3006},{""page_index"":7,""viewing_time"":4246}]",39394,,,2227,,,,,,,,,,,,,,,,,
,instructions,79512.0,0.0-3.0-0.0,"[{""page_index"":0,""viewing_time"":4553}]",4554,,,2227,,,,,,,,,,,,,,,,,
,instructions,83415.0,0.0-1.0-0.0,"[{""page_index"":0,""viewing_time"":7186},{""page_index"":1,""viewing_time"":14249},{""page_index"":2,""viewing_time"":9265},{""page_index"":3,""viewing_time"":11078},{""page_index"":4,""viewing_time"":6134},{""page_index"":5,""viewing_time"":13814},{""page_index"":6,""viewing_time"":10609},{""page_index"":7,""viewing_time"":6780}]",79116,,,2228,,,,,,,,,,,,,,,,,
,instructions,221902.0,0.0-1.1-0.1,"[{""page_index"":0,""viewing_time"":1442},{""page_index"":1,""viewing_time"":5776},{""page_index"":2,""viewing_time"":3082},{""page_index"":3,""viewing_time"":5794},{""page_index"":4,""viewing_time"":4770},{""page_index"":5,""viewing_time"":4526},{""page_index"":6,""viewing_time"":12448},{""page_index"":7,""viewing_time"":2667},{""page_index"":6,""viewing_time"":12118},{""page_index"":5,""viewing_time"":3750},{""page_index"":4,""viewing_time"":6253},{""page_index"":3,""viewing_time"":7449},{""page_index"":2,""viewing_time"":4987},{""page_index"":1,""viewing_time"":4977},{""page_index"":0,""viewing_time"":2777},{""page_index"":1,""viewing_time"":972},{""page_index"":2,""viewing_time"":656},{""page_index"":3,""viewing_time"":8999},{""page_index"":4,""viewing_time"":4211},{""page_index"":5,""viewing_time"":2415},{""page_index"":6,""viewing_time"":6123},{""page_index"":7,""viewing_time"":1696}]",107889,,,2228,,,,,,,,,,,,,,,,,
,instructions,265310.0,0.0-3.0-0.0,"[{""page_index"":0,""viewing_time"":2951}]",2951,,,2228,,,,,,,,,,,,,,,,,
,instructions,50093.0,0.0-1.0-0.0,"[{""page_index"":0,""viewing_time"":1850},{""page_index"":1,""viewing_time"":12645},{""page_index"":2,""viewing_time"":7625},{""page_index"":3,""viewing_time"":6620},{""page_index"":4,""viewing_time"":3206},{""page_index"":5,""viewing_time"":3424},{""page_index"":6,""viewing_time"":8117},{""page_index"":7,""viewing_time"":3469}]",46957,,,2211,,,,,,,,,,,,,,,,,
,instructions,82942.0,0.0-3.0-0.0,"[{""page_index"":0,""viewing_time"":4974}]",4975,,,2211,,,,,,,,,,,,,,,,,
,instructions,131505.0,0.0-1.0-0.0,"[{""page_index"":0,""viewing_time"":9940},{""page_index"":1,""viewing_time"":26163},{""page_index"":2,""viewing_time"":14999},{""page_index"":3,""viewing_time"":13470},{""page_index"":2,""viewing_time"":5936},{""page_index"":3,""viewing_time"":2547},{""page_index"":4,""viewing_time"":15031},{""page_index"":5,""viewing_time"":12188},{""page_index"":6,""viewing_time"":19500},{""page_index"":7,""viewing_time"":8564}]",128338,,,2354,,,,,,,,,,,,,,,,,
,instructions,240161.0,0.0-1.1-0.1,"[{""page_index"":0,""viewing_time"":3671},{""page_index"":1,""viewing_time"":4774},{""page_index"":2,""viewing_time"":6906},{""page_index"":1,""viewing_time"":2296},{""page_index"":2,""viewing_time"":9986},{""page_index"":3,""viewing_time"":19070},{""page_index"":4,""viewing_time"":6796},{""page_index"":5,""viewing_time"":2304},{""page_index"":6,""viewing_time"":12392},{""page_index"":7,""viewing_time"":1266}]",69461,,,2354,,,,,,,,,,,,,,,,,
,instructions,298720.0,0.0-3.0-0.0,"[{""page_index"":0,""viewing_time"":42581}]",42581,,,2354,,,,,,,,,,,,,,,,,
,instructions,30195.0,0.0-1.0-0.0,"[{""page_index"":0,""viewing_time"":5446},{""page_index"":1,""viewing_time"":2328},{""page_index"":2,""viewing_time"":1216},{""page_index"":3,""viewing_time"":1184},{""page_index"":4,""viewing_time"":800},{""page_index"":5,""viewing_time"":2569},{""page_index"":6,""viewing_time"":1120},{""page_index"":7,""viewing_time"":1327}]",15991,,,2286,,,,,,,,,,,,,,,,,
,instructions,110420.0,0.0-1.1-0.1,"[{""page_index"":0,""viewing_time"":6861},{""page_index"":1,""viewing_time"":12512},{""page_index"":2,""viewing_time"":6352},{""page_index"":3,""viewing_time"":6280},{""page_index"":4,""viewing_time"":8960},{""page_index"":5,""viewing_time"":2608},{""page_index"":6,""viewing_time"":9761},{""page_index"":7,""viewing_time"":3992}]",57327,,,2286,,,,,,,,,,,,,,,,,
,instructions,182011.0,0.0-1.2-0.2,"[{""page_index"":0,""viewing_time"":2340},{""page_index"":1,""viewing_time"":5536},{""page_index"":2,""viewing_time"":5888},{""page_index"":3,""viewing_time"":7663},{""page_index"":4,""viewing_time"":6785},{""page_index"":5,""viewing_time"":4640},{""page_index"":6,""viewing_time"":14511},{""page_index"":7,""viewing_time"":1632}]",48996,,,2286,,,,,,,,,,,,,,,,,
,instructions,245150.0,0.0-3.0-0.0,"[{""page_index"":0,""viewing_time"":5970}]",5971,,,2286,,,,,,,,,,,,,,,,,
,instructions,84690.0,0.0-1.0-0.0,"[{""page_index"":0,""viewing_time"":7035},{""page_index"":1,""viewing_time"":15192},{""page_index"":2,""viewing_time"":12136},{""page_index"":3,""viewing_time"":9120},{""page_index"":4,""viewing_time"":7448},{""page_index"":5,""viewing_time"":8024},{""page_index"":6,""viewing_time"":14784},{""page_index"":7,""viewing_time"":7136}]",80875,,,2287,,,,,,,,,,,,,,,,,
,instructions,149074.0,0.0-1.1-0.1,"[{""page_index"":0,""viewing_time"":2463},{""page_index"":1,""viewing_time"":1832},{""page_index"":2,""viewing_time"":6080},{""page_index"":3,""viewing_time"":9432},{""page_index"":4,""viewing_time"":3479},{""page_index"":5,""viewing_time"":1617},{""page_index"":6,""viewing_time"":6936},{""page_index"":7,""viewing_time"":1359}]",33199,,,2287,,,,,,,,,,,,,,,,,
,instructions,182891.0,0.0-3.0-0.0,"[{""page_index"":0,""viewing_time"":12149}]",12149,,,2287,,,,,,,,,,,,,,,,,
,instructions,331414.0,0.0-1.0-0.0,"[{""page_index"":0,""viewing_time"":2467},{""page_index"":1,""viewing_time"":9584},{""page_index"":2,""viewing_time"":8840},{""page_index"":3,""viewing_time"":11656},{""page_index"":4,""viewing_time"":7727},{""page_index"":5,""viewing_time"":8105},{""page_index"":6,""viewing_time"":10312},{""page_index"":7,""viewing_time"":2304}]",60996,,,2229,,,,,,,,,,,,,,,,,
,instructions,370725.0,0.0-3.0-0.0,"[{""page_index"":0,""viewing_time"":4737}]",4738,,,2229,,,,,,,,,,,,,,,,,
,instructions,139097.0,0.0-1.0-0.0,"[{""page_index"":0,""viewing_time"":8507},{""page_index"":1,""viewing_time"":8967},{""page_index"":2,""viewing_time"":7481},{""page_index"":3,""viewing_time"":9560},{""page_index"":4,""viewing_time"":6200},{""page_index"":5,""viewing_time"":75271},{""page_index"":6,""viewing_time"":10080},{""page_index"":7,""viewing_time"":5984}]",132050,,,2212,,,,,,,,,,,,,,,,,
,instructions,170462.0,0.0-3.0-0.0,"[{""page_index"":0,""viewing_time"":10845}]",10846,,,2212,,,,,,,,,,,,,,,,,
,instructions,60673.0,0.0-1.0-0.0,"[{""page_index"":0,""viewing_time"":3954},{""page_index"":1,""viewing_time"":9895},{""page_index"":2,""viewing_time"":8247},{""page_index"":3,""viewing_time"":7376},{""page_index"":4,""viewing_time"":5461},{""page_index"":5,""viewing_time"":6939},{""page_index"":6,""viewing_time"":9444},{""page_index"":7,""viewing_time"":6749}]",58065,,,2322,,,,,,,,,,,,,,,,,
,instructions,88079.0,0.0-3.0-0.0,"[{""page_index"":0,""viewing_time"":6354}]",6354,,,2322,,,,,,,,,,,,,,,,,
,instructions,71625.0,0.0-1.0-0.0,"[{""page_index"":0,""viewing_time"":4774},{""page_index"":1,""viewing_time"":11116},{""page_index"":2,""viewing_time"":11155},{""page_index"":3,""viewing_time"":9372},{""page_index"":4,""viewing_time"":8333},{""page_index"":5,""viewing_time"":6189},{""page_index"":6,""viewing_time"":10610},{""page_index"":7,""viewing_time"":7245}]",68795,,,2275,,,,,,,,,,,,,,,,,
,instructions,156075.0,0.0-1.1-0.1,"[{""page_index"":0,""viewing_time"":4964},{""page_index"":1,""viewing_time"":6748},{""page_index"":2,""viewing_time"":6326},{""page_index"":3,""viewing_time"":10571},{""page_index"":4,""viewing_time"":6398},{""page_index"":5,""viewing_time"":5644},{""page_index"":6,""viewing_time"":12939},{""page_index"":7,""viewing_time"":2239}]",55829,,,2275,,,,,,,,,,,,,,,,,
,instructions,185826.0,0.0-3.0-0.0,"[{""page_index"":0,""viewing_time"":4803}]",4803,,,2275,,,,,,,,,,,,,,,,,
,instructions,41561.0,0.0-1.0-0.0,"[{""page_index"":0,""viewing_time"":3625},{""page_index"":1,""viewing_time"":6119},{""page_index"":2,""viewing_time"":6667},{""page_index"":3,""viewing_time"":7146},{""page_index"":4,""viewing_time"":4976},{""page_index"":5,""viewing_time"":4144},{""page_index"":6,""viewing_time"":4402},{""page_index"":7,""viewing_time"":1853}]",38932,,,2231,,,,,,,,,,,,,,,,,
,instructions,65538.0,0.0-3.0-0.0,"[{""page_index"":0,""viewing_time"":4607}]",4607,,,2231,,,,,,,,,,,,,,,,,
,instructions,198623.0,0.0-1.0-0.0,"[{""page_index"":0,""viewing_time"":15886},{""page_index"":1,""viewing_time"":34520},{""page_index"":2,""viewing_time"":28609},{""page_index"":3,""viewing_time"":18040},{""page_index"":4,""viewing_time"":30425},{""page_index"":5,""viewing_time"":24712},{""page_index"":6,""viewing_time"":33096},{""page_index"":7,""viewing_time"":8376}]",193665,,,2232,,,,,,,,,,,,,,,,,
,instructions,345121.0,0.0-1.1-0.1,"[{""page_index"":0,""viewing_time"":2460},{""page_index"":1,""viewing_time"":11968},{""page_index"":2,""viewing_time"":9208},{""page_index"":3,""viewing_time"":11792},{""page_index"":4,""viewing_time"":6664},{""page_index"":5,""viewing_time"":8280},{""page_index"":6,""viewing_time"":55929},{""page_index"":7,""viewing_time"":1792}]",108094,,,2232,,,,,,,,,,,,,,,,,
,instructions,575378.0,0.0-1.2-0.2,"[{""page_index"":0,""viewing_time"":1436},{""page_index"":1,""viewing_time"":1408},{""page_index"":2,""viewing_time"":848},{""page_index"":3,""viewing_time"":1120},{""page_index"":4,""viewing_time"":21184},{""page_index"":5,""viewing_time"":1728},{""page_index"":6,""viewing_time"":12456},{""page_index"":7,""viewing_time"":2705}]",42885,,,2232,,,,,,,,,,,,,,,,,
,instructions,640647.0,0.0-3.0-0.0,"[{""page_index"":0,""viewing_time"":17056}]",17056,,,2232,,,,,,,,,,,,,,,,,
,instructions,83344.0,0.0-1.0-0.0,"[{""page_index"":0,""viewing_time"":5783},{""page_index"":1,""viewing_time"":16808},{""page_index"":2,""viewing_time"":14336},{""page_index"":3,""viewing_time"":14409},{""page_index"":4,""viewing_time"":9936},{""page_index"":5,""viewing_time"":6120},{""page_index"":6,""viewing_time"":9303},{""page_index"":7,""viewing_time"":3472}]",80168,,,2233,,,,,,,,,,,,,,,,,
,instructions,144112.0,0.0-1.1-0.1,"[{""page_index"":0,""viewing_time"":4125},{""page_index"":1,""viewing_time"":3496},{""page_index"":2,""viewing_time"":6776},{""page_index"":3,""viewing_time"":11200},{""page_index"":4,""viewing_time"":3968},{""page_index"":5,""viewing_time"":1344},{""page_index"":6,""viewing_time"":2216},{""page_index"":7,""viewing_time"":1496}]",34622,,,2233,,,,,,,,,,,,,,,,,
,instructions,188362.0,0.0-3.0-0.0,"[{""page_index"":0,""viewing_time"":8086}]",8086,,,2233,,,,,,,,,,,,,,,,,
,instructions,68047.0,0.0-1.0-0.0,"[{""page_index"":0,""viewing_time"":2534},{""page_index"":1,""viewing_time"":24098},{""page_index"":2,""viewing_time"":6720},{""page_index"":3,""viewing_time"":3644},{""page_index"":2,""viewing_time"":1120},{""page_index"":3,""viewing_time"":3782},{""page_index"":4,""viewing_time"":4644},{""page_index"":5,""viewing_time"":9468},{""page_index"":6,""viewing_time"":6786},{""page_index"":7,""viewing_time"":3038}]",65835,,,2366,,,,,,,,,,,,,,,,,
,instructions,111624.0,0.0-1.1-0.1,"[{""page_index"":0,""viewing_time"":1240},{""page_index"":1,""viewing_time"":3778},{""page_index"":0,""viewing_time"":1274},{""page_index"":1,""viewing_time"":904},{""page_index"":2,""viewing_time"":2894},{""page_index"":3,""viewing_time"":3118},{""page_index"":4,""viewing_time"":2146},{""page_index"":5,""viewing_time"":1381},{""page_index"":6,""viewing_time"":3794},{""page_index"":7,""viewing_time"":766}]",21295,,,2366,,,,,,,,,,,,,,,,,
,instructions,131853.0,0.0-3.0-0.0,"[{""page_index"":0,""viewing_time"":9137}]",9137,,,2366,,,,,,,,,,,,,,,,,
,instructions,194596.0,0.0-1.0-0.0,"[{""page_index"":0,""viewing_time"":16938},{""page_index"":1,""viewing_time"":16151},{""page_index"":2,""viewing_time"":71081},{""page_index"":3,""viewing_time"":8024},{""page_index"":4,""viewing_time"":10984},{""page_index"":5,""viewing_time"":7920},{""page_index"":6,""viewing_time"":11120},{""page_index"":7,""viewing_time"":5016}]",147235,,,2276,,,,,,,,,,,,,,,,,
,instructions,436822.0,0.0-1.1-0.1,"[{""page_index"":0,""viewing_time"":2262},{""page_index"":1,""viewing_time"":5048},{""page_index"":2,""viewing_time"":87568},{""page_index"":3,""viewing_time"":100369},{""page_index"":4,""viewing_time"":10256},{""page_index"":5,""viewing_time"":1624},{""page_index"":6,""viewing_time"":4592},{""page_index"":7,""viewing_time"":1704}]",213424,,,2276,,,,,,,,,,,,,,,,,
,instructions,475960.0,0.0-3.0-0.0,"[{""page_index"":0,""viewing_time"":10258}]",10258,,,2276,,,,,,,,,,,,,,,,,
,instructions,159059.0,0.0-1.0-0.0,"[{""page_index"":0,""viewing_time"":3765},{""page_index"":1,""viewing_time"":14059},{""page_index"":2,""viewing_time"":10354},{""page_index"":3,""viewing_time"":10369},{""page_index"":4,""viewing_time"":7473},{""page_index"":5,""viewing_time"":8928},{""page_index"":6,""viewing_time"":94238},{""page_index"":7,""viewing_time"":6417}]",155603.0,,,195,,,,,,,,,,,,,,,,,
,instructions,231044.0,0.0-1.1-0.1,"[{""page_index"":0,""viewing_time"":2216},{""page_index"":1,""viewing_time"":11113},{""page_index"":2,""viewing_time"":5634},{""page_index"":3,""viewing_time"":5929},{""page_index"":4,""viewing_time"":2272},{""page_index"":5,""viewing_time"":1695},{""page_index"":6,""viewing_time"":13755},{""page_index"":7,""viewing_time"":1344}]",43958.0,,,195,,,,,,,,,,,,,,,,,
,instructions,320869.0,0.0-1.2-0.2,"[{""page_index"":0,""viewing_time"":4230},{""page_index"":1,""viewing_time"":18027},{""page_index"":2,""viewing_time"":8570},{""page_index"":3,""viewing_time"":8696},{""page_index"":4,""viewing_time"":9145},{""page_index"":5,""viewing_time"":6536},{""page_index"":6,""viewing_time"":11441},{""page_index"":7,""viewing_time"":1752}]",68397.0,,,195,,,,,,,,,,,,,,,,,
,instructions,365859.0,0.0-1.3-0.3,"[{""page_index"":0,""viewing_time"":1181},{""page_index"":1,""viewing_time"":1264},{""page_index"":2,""viewing_time"":872},{""page_index"":3,""viewing_time"":976},{""page_index"":4,""viewing_time"":696},{""page_index"":5,""viewing_time"":506},{""page_index"":6,""viewing_time"":1136},{""page_index"":7,""viewing_time"":1095}]",7726.0,,,195,,,,,,,,,,,,,,,,,
,instructions,121605.0,0.0-1.0-0.0,"[{""page_index"":0,""viewing_time"":7599},{""page_index"":1,""viewing_time"":25282},{""page_index"":2,""viewing_time"":13093},{""page_index"":3,""viewing_time"":11864},{""page_index"":4,""viewing_time"":10646},{""page_index"":5,""viewing_time"":13104},{""page_index"":6,""viewing_time"":32668},{""page_index"":7,""viewing_time"":4722}]",118978,,,2234,,,,,,,,,,,,,,,,,
,instructions,197036.0,0.0-3.0-0.0,"[{""page_index"":0,""viewing_time"":2930}]",2931,,,2234,,,,,,,,,,,,,,,,,
,instructions,131062.0,0.0-1.0-0.0,"[{""page_index"":0,""viewing_time"":7394},{""page_index"":1,""viewing_time"":19551},{""page_index"":2,""viewing_time"":18105},{""page_index"":3,""viewing_time"":13959},{""page_index"":4,""viewing_time"":17407},{""page_index"":5,""viewing_time"":7288},{""page_index"":6,""viewing_time"":28704},{""page_index"":7,""viewing_time"":7272}]",119683,,,2235,,,,,,,,,,,,,,,,,
,instructions,194747.0,0.0-3.0-0.0,"[{""page_index"":0,""viewing_time"":12624}]",12624,,,2235,,,,,,,,,,,,,,,,,
,instructions,56327.0,0.0-1.0-0.0,"[{""page_index"":0,""viewing_time"":2202},{""page_index"":1,""viewing_time"":8887},{""page_index"":2,""viewing_time"":11962},{""page_index"":3,""viewing_time"":6188},{""page_index"":4,""viewing_time"":4522},{""page_index"":5,""viewing_time"":4051},{""page_index"":6,""viewing_time"":13484},{""page_index"":7,""viewing_time"":2624}]",53922,,,2361,,,,,,,,,,,,,,,,,
,instructions,113520.0,0.0-1.1-0.1,"[{""page_index"":0,""viewing_time"":1508},{""page_index"":1,""viewing_time"":6838},{""page_index"":2,""viewing_time"":4317},{""page_index"":3,""viewing_time"":7489},{""page_index"":4,""viewing_time"":6456},{""page_index"":5,""viewing_time"":1537},{""page_index"":6,""viewing_time"":4864},{""page_index"":7,""viewing_time"":1482}]",34492,,,2361,,,,,,,,,,,,,,,,,
,instructions,134981.0,0.0-3.0-0.0,"[{""page_index"":0,""viewing_time"":3802}]",3803,,,2361,,,,,,,,,,,,,,,,,
,instructions,82503.0,0.0-1.0-0.0,"[{""page_index"":0,""viewing_time"":2902},{""page_index"":1,""viewing_time"":8271},{""page_index"":2,""viewing_time"":10928},{""page_index"":3,""viewing_time"":14110},{""page_index"":4,""viewing_time"":9180},{""page_index"":5,""viewing_time"":10735},{""page_index"":6,""viewing_time"":9808},{""page_index"":7,""viewing_time"":2625}]",68560,,,2323,,,,,,,,,,,,,,,,,
,instructions,151167.0,0.0-1.1-0.1,"[{""page_index"":0,""viewing_time"":1238},{""page_index"":1,""viewing_time"":6607},{""page_index"":2,""viewing_time"":2158},{""page_index"":3,""viewing_time"":6030},{""page_index"":4,""viewing_time"":4721},{""page_index"":5,""viewing_time"":1804},{""page_index"":6,""viewing_time"":7911},{""page_index"":7,""viewing_time"":1459}]",31928,,,2323,,,,,,,,,,,,,,,,,
,instructions,164222.0,0.0-3.0-0.0,"[{""page_index"":0,""viewing_time"":2828}]",2828,,,2323,,,,,,,,,,,,,,,,,
,instructions,121036.0,0.0-1.0-0.0,"[{""page_index"":0,""viewing_time"":10781},{""page_index"":1,""viewing_time"":21301},{""page_index"":2,""viewing_time"":12371},{""page_index"":3,""viewing_time"":21229},{""page_index"":4,""viewing_time"":10672},{""page_index"":5,""viewing_time"":10999},{""page_index"":6,""viewing_time"":14315},{""page_index"":7,""viewing_time"":8035}]",109703,,,2277,,,,,,,,,,,,,,,,,
,instructions,163639.0,0.0-3.0-0.0,"[{""page_index"":0,""viewing_time"":8595}]",8595,,,2277,,,,,,,,,,,,,,,,,
,instructions,111156.0,0.0-1.0-0.0,"[{""page_index"":0,""viewing_time"":23803},{""page_index"":1,""viewing_time"":10082},{""page_index"":2,""viewing_time"":9849},{""page_index"":3,""viewing_time"":10026},{""page_index"":4,""viewing_time"":6411},{""page_index"":5,""viewing_time"":8245},{""page_index"":6,""viewing_time"":22264},{""page_index"":7,""viewing_time"":9156}]",99837,,,2236,,,,,,,,,,,,,,,,,
,instructions,201800.0,0.0-1.1-0.1,"[{""page_index"":0,""viewing_time"":1571},{""page_index"":1,""viewing_time"":7080},{""page_index"":2,""viewing_time"":8222},{""page_index"":3,""viewing_time"":6087},{""page_index"":4,""viewing_time"":2559},{""page_index"":5,""viewing_time"":1420},{""page_index"":6,""viewing_time"":1850},{""page_index"":7,""viewing_time"":1520}]",30309,,,2236,,,,,,,,,,,,,,,,,
,instructions,219360.0,0.0-3.0-0.0,"[{""page_index"":0,""viewing_time"":4512}]",4513,,,2236,,,,,,,,,,,,,,,,,
,instructions,214266.0,0.0-1.0-0.0,"[{""page_index"":0,""viewing_time"":15448},{""page_index"":1,""viewing_time"":50942},{""page_index"":2,""viewing_time"":50906},{""page_index"":3,""viewing_time"":16525},{""page_index"":4,""viewing_time"":10918},{""page_index"":5,""viewing_time"":15838},{""page_index"":6,""viewing_time"":20533},{""page_index"":7,""viewing_time"":12741}]",193852,,,2237,,,,,,,,,,,,,,,,,
,instructions,580952.0,0.0-3.0-0.0,"[{""page_index"":0,""viewing_time"":136079}]",136080,,,2237,,,,,,,,,,,,,,,,,
,instructions,103438.0,0.0-1.0-0.0,"[{""page_index"":0,""viewing_time"":8577},{""page_index"":1,""viewing_time"":18176},{""page_index"":2,""viewing_time"":13282},{""page_index"":3,""viewing_time"":14671},{""page_index"":4,""viewing_time"":11072},{""page_index"":5,""viewing_time"":8520},{""page_index"":6,""viewing_time"":19591},{""page_index"":7,""viewing_time"":6616}]",100507,,,2213,,,,,,,,,,,,,,,,,
,instructions,133947.0,0.0-3.0-0.0,"[{""page_index"":0,""viewing_time"":7617}]",7618,,,2213,,,,,,,,,,,,,,,,,
,instructions,47469.0,0.0-1.0-0.0,"[{""page_index"":0,""viewing_time"":3371},{""page_index"":1,""viewing_time"":2908},{""page_index"":2,""viewing_time"":6764},{""page_index"":3,""viewing_time"":4895},{""page_index"":4,""viewing_time"":4414},{""page_index"":5,""viewing_time"":6287},{""page_index"":6,""viewing_time"":13778},{""page_index"":7,""viewing_time"":3000}]",45417,,,2324,,,,,,,,,,,,,,,,,
,instructions,90964.0,0.0-1.1-0.1,"[{""page_index"":0,""viewing_time"":1098},{""page_index"":1,""viewing_time"":1705},{""page_index"":2,""viewing_time"":871},{""page_index"":3,""viewing_time"":3137},{""page_index"":4,""viewing_time"":2382},{""page_index"":5,""viewing_time"":2139},{""page_index"":6,""viewing_time"":3929},{""page_index"":7,""viewing_time"":3247}]",18508,,,2324,,,,,,,,,,,,,,,,,
,instructions,108518.0,0.0-3.0-0.0,"[{""page_index"":0,""viewing_time"":3532}]",3532,,,2324,,,,,,,,,,,,,,,,,
,instructions,176875.0,0.0-1.0-0.0,"[{""page_index"":0,""viewing_time"":19109},{""page_index"":1,""viewing_time"":45625},{""page_index"":2,""viewing_time"":12830},{""page_index"":3,""viewing_time"":20640},{""page_index"":4,""viewing_time"":13887},{""page_index"":5,""viewing_time"":8057},{""page_index"":6,""viewing_time"":41149},{""page_index"":7,""viewing_time"":9611}]",170909,,,2308,,,,,,,,,,,,,,,,,
,instructions,395776.0,0.0-1.1-0.1,"[{""page_index"":0,""viewing_time"":8430},{""page_index"":1,""viewing_time"":17692},{""page_index"":2,""viewing_time"":8473},{""page_index"":3,""viewing_time"":9402},{""page_index"":4,""viewing_time"":97476},{""page_index"":5,""viewing_time"":14649},{""page_index"":6,""viewing_time"":17220},{""page_index"":7,""viewing_time"":7393}]",180735,,,2308,,,,,,,,,,,,,,,,,
,instructions,705936.0,0.0-1.2-0.2,"[{""page_index"":0,""viewing_time"":84975},{""page_index"":1,""viewing_time"":35782},{""page_index"":2,""viewing_time"":11045},{""page_index"":3,""viewing_time"":29809},{""page_index"":4,""viewing_time"":24528},{""page_index"":5,""viewing_time"":10781},{""page_index"":6,""viewing_time"":32594},{""page_index"":7,""viewing_time"":6455}]",235970,,,2308,,,,,,,,,,,,,,,,,
,instructions,970760.0,0.0-3.0-0.0,"[{""page_index"":0,""viewing_time"":20250}]",20250,,,2308,,,,,,,,,,,,,,,,,
,instructions,38032.0,0.0-1.0-0.0,"[{""page_index"":0,""viewing_time"":4498},{""page_index"":1,""viewing_time"":3313},{""page_index"":2,""viewing_time"":8266},{""page_index"":3,""viewing_time"":5881},{""page_index"":4,""viewing_time"":4254},{""page_index"":5,""viewing_time"":6628},{""page_index"":6,""viewing_time"":1590},{""page_index"":7,""viewing_time"":1473}]",35907,,,2288,,,,,,,,,,,,,,,,,
,instructions,56370.0,0.0-3.0-0.0,"[{""page_index"":0,""viewing_time"":1941}]",1942,,,2288,,,,,,,,,,,,,,,,,
,instructions,80399.0,0.0-1.0-0.0,"[{""page_index"":0,""viewing_time"":6285},{""page_index"":1,""viewing_time"":10886},{""page_index"":2,""viewing_time"":10874},{""page_index"":3,""viewing_time"":14492},{""page_index"":4,""viewing_time"":6964},{""page_index"":5,""viewing_time"":6392},{""page_index"":6,""viewing_time"":17160},{""page_index"":7,""viewing_time"":3442}]",76496,,,2289,,,,,,,,,,,,,,,,,
,instructions,132437.0,0.0-3.0-0.0,"[{""page_index"":0,""viewing_time"":7961}]",7961,,,2289,,,,,,,,,,,,,,,,,
,instructions,114247.0,0.0-1.0-0.0,"[{""page_index"":0,""viewing_time"":7464},{""page_index"":1,""viewing_time"":22891},{""page_index"":2,""viewing_time"":14505},{""page_index"":3,""viewing_time"":10249},{""page_index"":4,""viewing_time"":15066},{""page_index"":5,""viewing_time"":10601},{""page_index"":6,""viewing_time"":19498},{""page_index"":7,""viewing_time"":9025}]",109301,,,2239,,,,,,,,,,,,,,,,,
,instructions,192471.0,0.0-3.0-0.0,"[{""page_index"":0,""viewing_time"":11723}]",11724,,,2239,,,,,,,,,,,,,,,,,
,instructions,166495.0,0.0-1.0-0.0,"[{""page_index"":0,""viewing_time"":11975},{""page_index"":1,""viewing_time"":35456},{""page_index"":2,""viewing_time"":15052},{""page_index"":3,""viewing_time"":13342},{""page_index"":4,""viewing_time"":11010},{""page_index"":5,""viewing_time"":33112},{""page_index"":6,""viewing_time"":18960},{""page_index"":7,""viewing_time"":10318}]",149226,,,2349,,,,,,,,,,,,,,,,,
,instructions,209400.0,0.0-3.0-0.0,"[{""page_index"":0,""viewing_time"":7221}]",7221,,,2349,,,,,,,,,,,,,,,,,
,instructions,111412.0,0.0-1.0-0.0,"[{""page_index"":0,""viewing_time"":8733},{""page_index"":1,""viewing_time"":8099},{""page_index"":2,""viewing_time"":36279},{""page_index"":3,""viewing_time"":7705},{""page_index"":4,""viewing_time"":20712},{""page_index"":5,""viewing_time"":3701},{""page_index"":6,""viewing_time"":11091},{""page_index"":7,""viewing_time"":11008}]",107329,,,2325,,,,,,,,,,,,,,,,,
,instructions,162380.0,0.0-1.1-0.1,"[{""page_index"":0,""viewing_time"":2255},{""page_index"":1,""viewing_time"":1064},{""page_index"":2,""viewing_time"":856},{""page_index"":3,""viewing_time"":920},{""page_index"":4,""viewing_time"":879},{""page_index"":5,""viewing_time"":473},{""page_index"":6,""viewing_time"":976},{""page_index"":7,""viewing_time"":808}]",8232,,,2325,,,,,,,,,,,,,,,,,
,instructions,207372.0,0.0-1.2-0.2,"[{""page_index"":0,""viewing_time"":14185},{""page_index"":1,""viewing_time"":927},{""page_index"":2,""viewing_time"":801},{""page_index"":3,""viewing_time"":1033},{""page_index"":4,""viewing_time"":4210},{""page_index"":5,""viewing_time"":3861},{""page_index"":6,""viewing_time"":1447},{""page_index"":7,""viewing_time"":905}]",27370,,,2325,,,,,,,,,,,,,,,,,
,instructions,246842.0,0.0-3.0-0.0,"[{""page_index"":0,""viewing_time"":3703}]",3703,,,2325,,,,,,,,,,,,,,,,,
,instructions,58857.0,0.0-1.0-0.0,"[{""page_index"":0,""viewing_time"":5211},{""page_index"":1,""viewing_time"":11080},{""page_index"":2,""viewing_time"":6540},{""page_index"":3,""viewing_time"":7422},{""page_index"":4,""viewing_time"":8248},{""page_index"":5,""viewing_time"":6788},{""page_index"":6,""viewing_time"":8442},{""page_index"":7,""viewing_time"":2580}]",56312,,,2240,,,,,,,,,,,,,,,,,
,instructions,131055.0,0.0-1.1-0.1,"[{""page_index"":0,""viewing_time"":1630},{""page_index"":1,""viewing_time"":5985},{""page_index"":2,""viewing_time"":6658},{""page_index"":3,""viewing_time"":8698},{""page_index"":4,""viewing_time"":7182},{""page_index"":5,""viewing_time"":4504},{""page_index"":6,""viewing_time"":12078},{""page_index"":7,""viewing_time"":1258}]",47994,,,2240,,,,,,,,,,,,,,,,,
,instructions,210467.0,0.0-1.2-0.2,"[{""page_index"":0,""viewing_time"":1656},{""page_index"":1,""viewing_time"":2130},{""page_index"":0,""viewing_time"":5538},{""page_index"":1,""viewing_time"":6067},{""page_index"":2,""viewing_time"":6237},{""page_index"":3,""viewing_time"":10429},{""page_index"":4,""viewing_time"":1267},{""page_index"":5,""viewing_time"":1417},{""page_index"":6,""viewing_time"":3102},{""page_index"":7,""viewing_time"":1001}]",38844,,,2240,,,,,,,,,,,,,,,,,
,instructions,231631.0,0.0-3.0-0.0,"[{""page_index"":0,""viewing_time"":3839}]",3839,,,2240,,,,,,,,,,,,,,,,,
,instructions,148519.0,0.0-1.0-0.0,"[{""page_index"":0,""viewing_time"":24662},{""page_index"":1,""viewing_time"":23521},{""page_index"":2,""viewing_time"":33072},{""page_index"":3,""viewing_time"":11480},{""page_index"":4,""viewing_time"":7072},{""page_index"":5,""viewing_time"":6719},{""page_index"":6,""viewing_time"":21912},{""page_index"":7,""viewing_time"":9721}]",138160,,,2241,,,,,,,,,,,,,,,,,
,instructions,288406.0,0.0-1.1-0.1,"[{""page_index"":0,""viewing_time"":3859},{""page_index"":1,""viewing_time"":12776},{""page_index"":2,""viewing_time"":9111},{""page_index"":3,""viewing_time"":14872},{""page_index"":4,""viewing_time"":10040},{""page_index"":5,""viewing_time"":6753},{""page_index"":6,""viewing_time"":31361},{""page_index"":7,""viewing_time"":3454}]",92227,,,2241,,,,,,,,,,,,,,,,,
,instructions,332036.0,0.0-3.0-0.0,"[{""page_index"":0,""viewing_time"":15601}]",15602,,,2241,,,,,,,,,,,,,,,,,
,instructions,143985.0,0.0-1.0-0.0,"[{""page_index"":0,""viewing_time"":10070},{""page_index"":1,""viewing_time"":21616},{""page_index"":2,""viewing_time"":16520},{""page_index"":3,""viewing_time"":17080},{""page_index"":4,""viewing_time"":18248},{""page_index"":5,""viewing_time"":13184},{""page_index"":6,""viewing_time"":27432},{""page_index"":7,""viewing_time"":14792}]",138943,,,2242,,,,,,,,,,,,,,,,,
,instructions,215243.0,0.0-3.0-0.0,"[{""page_index"":0,""viewing_time"":15680}]",15681,,,2242,,,,,,,,,,,,,,,,,
,instructions,75906.0,0.0-1.0-0.0,"[{""page_index"":0,""viewing_time"":7242},{""page_index"":1,""viewing_time"":3881},{""page_index"":2,""viewing_time"":1951},{""page_index"":3,""viewing_time"":20023},{""page_index"":4,""viewing_time"":6197},{""page_index"":5,""viewing_time"":4548},{""page_index"":6,""viewing_time"":12834},{""page_index"":7,""viewing_time"":9595}]",66274,,,2350,,,,,,,,,,,,,,,,,
,instructions,193713.0,0.0-1.1-0.1,"[{""page_index"":0,""viewing_time"":8107},{""page_index"":1,""viewing_time"":14640},{""page_index"":2,""viewing_time"":10124},{""page_index"":3,""viewing_time"":8976},{""page_index"":4,""viewing_time"":9270},{""page_index"":5,""viewing_time"":9062},{""page_index"":6,""viewing_time"":10941},{""page_index"":7,""viewing_time"":8870}]",79994,,,2350,,,,,,,,,,,,,,,,,
,instructions,280488.0,0.0-3.0-0.0,"[{""page_index"":0,""viewing_time"":2470}]",2472,,,2350,,,,,,,,,,,,,,,,,
,instructions,319631.0,0.0-1.0-0.0,"[{""page_index"":0,""viewing_time"":8127},{""page_index"":1,""viewing_time"":19540},{""page_index"":2,""viewing_time"":24964},{""page_index"":3,""viewing_time"":14810},{""page_index"":4,""viewing_time"":8050},{""page_index"":5,""viewing_time"":7674},{""page_index"":6,""viewing_time"":16091},{""page_index"":7,""viewing_time"":6417},{""page_index"":6,""viewing_time"":1464},{""page_index"":5,""viewing_time"":1640},{""page_index"":4,""viewing_time"":584},{""page_index"":3,""viewing_time"":1793},{""page_index"":2,""viewing_time"":7601},{""page_index"":1,""viewing_time"":49713},{""page_index"":2,""viewing_time"":20276},{""page_index"":3,""viewing_time"":18362},{""page_index"":4,""viewing_time"":25182},{""page_index"":5,""viewing_time"":19418},{""page_index"":6,""viewing_time"":24396},{""page_index"":7,""viewing_time"":35567}]",311669,,,2328,,,,,,,,,,,,,,,,,
,instructions,454143.0,0.0-1.1-0.1,"[{""page_index"":0,""viewing_time"":4942},{""page_index"":1,""viewing_time"":1432},{""page_index"":2,""viewing_time"":687},{""page_index"":3,""viewing_time"":2306},{""page_index"":4,""viewing_time"":1519},{""page_index"":5,""viewing_time"":601},{""page_index"":6,""viewing_time"":1576},{""page_index"":7,""viewing_time"":1840}]",14903,,,2328,,,,,,,,,,,,,,,,,
,instructions,510372.0,0.0-3.0-0.0,"[{""page_index"":0,""viewing_time"":9947}]",9947,,,2328,,,,,,,,,,,,,,,,,
,instructions,124526.0,0.0-1.0-0.0,"[{""page_index"":0,""viewing_time"":13403},{""page_index"":1,""viewing_time"":26885},{""page_index"":2,""viewing_time"":39446},{""page_index"":3,""viewing_time"":7838},{""page_index"":4,""viewing_time"":6692},{""page_index"":5,""viewing_time"":5226},{""page_index"":6,""viewing_time"":8819},{""page_index"":7,""viewing_time"":6600}]",114911,,,2290,,,,,,,,,,,,,,,,,
,instructions,200564.0,0.0-1.1-0.1,"[{""page_index"":0,""viewing_time"":4272},{""page_index"":1,""viewing_time"":9378},{""page_index"":2,""viewing_time"":7212},{""page_index"":3,""viewing_time"":6832},{""page_index"":4,""viewing_time"":5983},{""page_index"":5,""viewing_time"":3878},{""page_index"":6,""viewing_time"":6819},{""page_index"":7,""viewing_time"":1787}]",46162,,,2290,,,,,,,,,,,,,,,,,
,instructions,277931.0,0.0-3.0-0.0,"[{""page_index"":0,""viewing_time"":8109}]",8114,,,2290,,,,,,,,,,,,,,,,,
,instructions,62607.0,0.0-1.0-0.0,"[{""page_index"":0,""viewing_time"":7360},{""page_index"":1,""viewing_time"":13372},{""page_index"":2,""viewing_time"":9026},{""page_index"":3,""viewing_time"":11702},{""page_index"":4,""viewing_time"":6425},{""page_index"":5,""viewing_time"":4548},{""page_index"":6,""viewing_time"":5444},{""page_index"":7,""viewing_time"":2293}]",60171,,,2291,,,,,,,,,,,,,,,,,
,instructions,115665.0,0.0-1.1-0.1,"[{""page_index"":0,""viewing_time"":2910},{""page_index"":1,""viewing_time"":3641},{""page_index"":2,""viewing_time"":2589},{""page_index"":3,""viewing_time"":2636},{""page_index"":4,""viewing_time"":2620},{""page_index"":5,""viewing_time"":3032},{""page_index"":6,""viewing_time"":10557},{""page_index"":7,""viewing_time"":1416}]",29401,,,2291,,,,,,,,,,,,,,,,,
,instructions,134442.0,0.0-3.0-0.0,"[{""page_index"":0,""viewing_time"":6409}]",6409,,,2291,,,,,,,,,,,,,,,,,
,instructions,112217.0,0.0-1.0-0.0,"[{""page_index"":0,""viewing_time"":8085},{""page_index"":1,""viewing_time"":28295},{""page_index"":2,""viewing_time"":18815},{""page_index"":3,""viewing_time"":14353},{""page_index"":4,""viewing_time"":12192},{""page_index"":5,""viewing_time"":9455},{""page_index"":6,""viewing_time"":12665},{""page_index"":7,""viewing_time"":5199}]",109060,,,2243,,,,,,,,,,,,,,,,,
,instructions,184433.0,0.0-1.1-0.1,"[{""page_index"":0,""viewing_time"":3094},{""page_index"":1,""viewing_time"":3960},{""page_index"":2,""viewing_time"":5704},{""page_index"":3,""viewing_time"":7919},{""page_index"":4,""viewing_time"":5584},{""page_index"":5,""viewing_time"":2320},{""page_index"":6,""viewing_time"":2200},{""page_index"":7,""viewing_time"":2616}]",33398,,,2243,,,,,,,,,,,,,,,,,
,instructions,209687.0,0.0-3.0-0.0,"[{""page_index"":0,""viewing_time"":7719}]",7719,,,2243,,,,,,,,,,,,,,,,,
,instructions,102574.0,0.0-1.0-0.0,"[{""page_index"":0,""viewing_time"":10585},{""page_index"":1,""viewing_time"":12848},{""page_index"":2,""viewing_time"":10632},{""page_index"":3,""viewing_time"":8792},{""page_index"":4,""viewing_time"":6000},{""page_index"":5,""viewing_time"":6289},{""page_index"":6,""viewing_time"":23263},{""page_index"":7,""viewing_time"":13272}]",91682,,,2244,,,,,,,,,,,,,,,,,
,instructions,156741.0,0.0-1.1-0.1,"[{""page_index"":0,""viewing_time"":947},{""page_index"":1,""viewing_time"":2056},{""page_index"":2,""viewing_time"":6824},{""page_index"":3,""viewing_time"":5041},{""page_index"":4,""viewing_time"":3728},{""page_index"":5,""viewing_time"":3760},{""page_index"":6,""viewing_time"":1991},{""page_index"":7,""viewing_time"":1080}]",25427,,,2244,,,,,,,,,,,,,,,,,
,instructions,168158.0,0.0-3.0-0.0,"[{""page_index"":0,""viewing_time"":3074}]",3074,,,2244,,,,,,,,,,,,,,,,,
,instructions,146521.0,0.0-1.0-0.0,"[{""page_index"":0,""viewing_time"":11789},{""page_index"":1,""viewing_time"":23335},{""page_index"":2,""viewing_time"":23144},{""page_index"":3,""viewing_time"":13837},{""page_index"":4,""viewing_time"":10508},{""page_index"":5,""viewing_time"":22610},{""page_index"":6,""viewing_time"":25810},{""page_index"":7,""viewing_time"":10724}]",141758,,,2355,,,,,,,,,,,,,,,,,
,instructions,267587.0,0.0-1.1-0.1,"[{""page_index"":0,""viewing_time"":4364},{""page_index"":1,""viewing_time"":22575},{""page_index"":2,""viewing_time"":6029},{""page_index"":3,""viewing_time"":9099},{""page_index"":4,""viewing_time"":10303},{""page_index"":5,""viewing_time"":2935},{""page_index"":6,""viewing_time"":15243},{""page_index"":7,""viewing_time"":2831}]",73380,,,2355,,,,,,,,,,,,,,,,,
,instructions,316764.0,0.0-3.0-0.0,"[{""page_index"":0,""viewing_time"":12753}]",12754,,,2355,,,,,,,,,,,,,,,,,
,instructions,96830.0,0.0-1.0-0.0,"[{""page_index"":0,""viewing_time"":7533},{""page_index"":1,""viewing_time"":17745},{""page_index"":2,""viewing_time"":21094},{""page_index"":3,""viewing_time"":8068},{""page_index"":4,""viewing_time"":4803},{""page_index"":5,""viewing_time"":5585},{""page_index"":6,""viewing_time"":14784},{""page_index"":7,""viewing_time"":9628}]",89240,,,2351,,,,,,,,,,,,,,,,,
,instructions,204154.0,0.0-1.1-0.1,"[{""page_index"":0,""viewing_time"":2386},{""page_index"":1,""viewing_time"":7332},{""page_index"":2,""viewing_time"":10232},{""page_index"":3,""viewing_time"":17435},{""page_index"":4,""viewing_time"":3558},{""page_index"":5,""viewing_time"":3473},{""page_index"":6,""viewing_time"":11471},{""page_index"":7,""viewing_time"":1831}]",57718,,,2351,,,,,,,,,,,,,,,,,
,instructions,239939.0,0.0-3.0-0.0,"[{""page_index"":0,""viewing_time"":8691}]",8691,,,2351,,,,,,,,,,,,,,,,,
,instructions,454308.0,0.0-1.0-0.0,"[{""page_index"":0,""viewing_time"":103634},{""page_index"":1,""viewing_time"":176005},{""page_index"":2,""viewing_time"":61997},{""page_index"":3,""viewing_time"":20439},{""page_index"":4,""viewing_time"":28001},{""page_index"":5,""viewing_time"":17090},{""page_index"":6,""viewing_time"":28557},{""page_index"":7,""viewing_time"":9765}]",445489,,,2278,,,,,,,,,,,,,,,,,
,instructions,561179.0,0.0-1.1-0.1,"[{""page_index"":0,""viewing_time"":4176},{""page_index"":1,""viewing_time"":8703},{""page_index"":2,""viewing_time"":10453},{""page_index"":3,""viewing_time"":16563},{""page_index"":4,""viewing_time"":4799},{""page_index"":5,""viewing_time"":1686},{""page_index"":6,""viewing_time"":3632},{""page_index"":7,""viewing_time"":1456}]",51469,,,2278,,,,,,,,,,,,,,,,,
,instructions,745339.0,0.0-1.2-0.2,"[{""page_index"":0,""viewing_time"":4525},{""page_index"":1,""viewing_time"":7716},{""page_index"":0,""viewing_time"":12393},{""page_index"":1,""viewing_time"":19916},{""page_index"":2,""viewing_time"":19583},{""page_index"":3,""viewing_time"":21884},{""page_index"":4,""viewing_time"":14346},{""page_index"":5,""viewing_time"":14829},{""page_index"":6,""viewing_time"":29024},{""page_index"":7,""viewing_time"":2751}]",146968,,,2278,,,,,,,,,,,,,,,,,
,instructions,803831.0,0.0-1.3-0.3,"[{""page_index"":0,""viewing_time"":949},{""page_index"":1,""viewing_time"":1194},{""page_index"":2,""viewing_time"":1216},{""page_index"":3,""viewing_time"":1276},{""page_index"":4,""viewing_time"":806},{""page_index"":5,""viewing_time"":698},{""page_index"":6,""viewing_time"":1320},{""page_index"":7,""viewing_time"":1300},{""page_index"":6,""viewing_time"":4226},{""page_index"":7,""viewing_time"":1478}]",14463,,,2278,,,,,,,,,,,,,,,,,
,instructions,906718.0,0.0-3.0-0.0,"[{""page_index"":0,""viewing_time"":32963}]",32964,,,2278,,,,,,,,,,,,,,,,,
,instructions,99910.0,0.0-1.0-0.0,"[{""page_index"":0,""viewing_time"":10461},{""page_index"":1,""viewing_time"":15436},{""page_index"":2,""viewing_time"":15765},{""page_index"":3,""viewing_time"":13541},{""page_index"":4,""viewing_time"":12288},{""page_index"":5,""viewing_time"":8322},{""page_index"":6,""viewing_time"":17144},{""page_index"":7,""viewing_time"":4062}]",97025.0,,,2214,,,,,,,,,,,,,,,,,
,instructions,160573.0,0.0-1.1-0.1,"[{""page_index"":0,""viewing_time"":2071},{""page_index"":1,""viewing_time"":4431},{""page_index"":2,""viewing_time"":5463},{""page_index"":3,""viewing_time"":5182},{""page_index"":4,""viewing_time"":2435},{""page_index"":5,""viewing_time"":1785},{""page_index"":6,""viewing_time"":5913},{""page_index"":7,""viewing_time"":1363}]",28645.0,,,2214,,,,,,,,,,,,,,,,,
,instructions,192290.0,0.0-1.2-0.2,"[{""page_index"":0,""viewing_time"":1407},{""page_index"":1,""viewing_time"":1474},{""page_index"":2,""viewing_time"":1378},{""page_index"":3,""viewing_time"":1442},{""page_index"":4,""viewing_time"":5681},{""page_index"":5,""viewing_time"":1411},{""page_index"":6,""viewing_time"":1859},{""page_index"":7,""viewing_time"":1329}]",15982.0,,,2214,,,,,,,,,,,,,,,,,
,instructions,262100.0,0.0-1.3-0.3,"[{""page_index"":0,""viewing_time"":3759},{""page_index"":1,""viewing_time"":5739},{""page_index"":2,""viewing_time"":4568},{""page_index"":3,""viewing_time"":9061},{""page_index"":4,""viewing_time"":5440},{""page_index"":5,""viewing_time"":2115},{""page_index"":6,""viewing_time"":7857},{""page_index"":7,""viewing_time"":1718}]",40258.0,,,2214,,,,,,,,,,,,,,,,,
,instructions,70793.0,0.0-1.0-0.0,"[{""page_index"":0,""viewing_time"":6855},{""page_index"":1,""viewing_time"":15029},{""page_index"":2,""viewing_time"":8864},{""page_index"":3,""viewing_time"":7298},{""page_index"":4,""viewing_time"":5766},{""page_index"":5,""viewing_time"":5065},{""page_index"":6,""viewing_time"":12397},{""page_index"":7,""viewing_time"":5264}]",66539,,,2215,,,,,,,,,,,,,,,,,
,instructions,94455.0,0.0-3.0-0.0,"[{""page_index"":0,""viewing_time"":2717}]",2717,,,2215,,,,,,,,,,,,,,,,,
,instructions,73523.0,0.0-1.0-0.0,"[{""page_index"":0,""viewing_time"":7462},{""page_index"":1,""viewing_time"":12713},{""page_index"":2,""viewing_time"":10330},{""page_index"":3,""viewing_time"":11297},{""page_index"":4,""viewing_time"":8913},{""page_index"":5,""viewing_time"":7418},{""page_index"":6,""viewing_time"":11035},{""page_index"":7,""viewing_time"":1976}]",71145,,,2362,,,,,,,,,,,,,,,,,
,instructions,165454.0,0.0-1.1-0.1,"[{""page_index"":0,""viewing_time"":1534},{""page_index"":1,""viewing_time"":3689},{""page_index"":2,""viewing_time"":6001},{""page_index"":3,""viewing_time"":8484},{""page_index"":4,""viewing_time"":13053},{""page_index"":5,""viewing_time"":2972},{""page_index"":6,""viewing_time"":19455},{""page_index"":7,""viewing_time"":1962}]",57151,,,2362,,,,,,,,,,,,,,,,,
,instructions,202786.0,0.0-3.0-0.0,"[{""page_index"":0,""viewing_time"":4376}]",4376,,,2362,,,,,,,,,,,,,,,,,
,instructions,34668.0,0.0-1.0-0.0,"[{""page_index"":0,""viewing_time"":1834},{""page_index"":1,""viewing_time"":4047},{""page_index"":2,""viewing_time"":2240},{""page_index"":3,""viewing_time"":3292},{""page_index"":4,""viewing_time"":4821},{""page_index"":5,""viewing_time"":5239},{""page_index"":6,""viewing_time"":5071},{""page_index"":7,""viewing_time"":3298}]",29842.0,,,2292,,,,,,,,,,,,,,,,,
,instructions,1403975.0,0.0-1.1-0.1,"[{""page_index"":0,""viewing_time"":1208667},{""page_index"":1,""viewing_time"":19192},{""page_index"":2,""viewing_time"":17607},{""page_index"":3,""viewing_time"":15730},{""page_index"":4,""viewing_time"":15950},{""page_index"":5,""viewing_time"":32303},{""page_index"":6,""viewing_time"":6371},{""page_index"":7,""viewing_time"":3549}]",1319374.0,,,2292,,,,,,,,,,,,,,,,,
,instructions,1568645.0,0.0-1.2-0.2,"[{""page_index"":0,""viewing_time"":1219},{""page_index"":1,""viewing_time"":7285},{""page_index"":2,""viewing_time"":9717},{""page_index"":3,""viewing_time"":10483},{""page_index"":4,""viewing_time"":3929},{""page_index"":5,""viewing_time"":4454},{""page_index"":6,""viewing_time"":6442},{""page_index"":7,""viewing_time"":1248}]",44777.0,,,2292,,,,,,,,,,,,,,,,,
,instructions,1600523.0,0.0-1.3-0.3,"[{""page_index"":0,""viewing_time"":1214},{""page_index"":1,""viewing_time"":1601},{""page_index"":2,""viewing_time"":1680},{""page_index"":3,""viewing_time"":1120},{""page_index"":4,""viewing_time"":1160},{""page_index"":5,""viewing_time"":815},{""page_index"":6,""viewing_time"":4348},{""page_index"":7,""viewing_time"":1284}]",13222.0,,,2292,,,,,,,,,,,,,,,,,
,instructions,70549.0,0.0-1.0-0.0,"[{""page_index"":0,""viewing_time"":6244},{""page_index"":1,""viewing_time"":11266},{""page_index"":2,""viewing_time"":9556},{""page_index"":3,""viewing_time"":8442},{""page_index"":4,""viewing_time"":6987},{""page_index"":5,""viewing_time"":5381},{""page_index"":6,""viewing_time"":9311},{""page_index"":7,""viewing_time"":9176}]",66364,,,2293,,,,,,,,,,,,,,,,,
,instructions,127334.0,0.0-1.1-0.1,"[{""page_index"":0,""viewing_time"":1430},{""page_index"":1,""viewing_time"":4368},{""page_index"":2,""viewing_time"":5189},{""page_index"":3,""viewing_time"":6189},{""page_index"":4,""viewing_time"":8240},{""page_index"":5,""viewing_time"":2156},{""page_index"":6,""viewing_time"":2690},{""page_index"":7,""viewing_time"":1294}]",31556,,,2293,,,,,,,,,,,,,,,,,
,instructions,192125.0,0.0-1.2-0.2,"[{""page_index"":0,""viewing_time"":1213},{""page_index"":1,""viewing_time"":4328},{""page_index"":2,""viewing_time"":4600},{""page_index"":3,""viewing_time"":6488},{""page_index"":4,""viewing_time"":1950},{""page_index"":5,""viewing_time"":942},{""page_index"":6,""viewing_time"":948},{""page_index"":7,""viewing_time"":912}]",21381,,,2293,,,,,,,,,,,,,,,,,
,instructions,283736.0,0.0-3.0-0.0,"[{""page_index"":0,""viewing_time"":81378}]",81378,,,2293,,,,,,,,,,,,,,,,,
,instructions,148907.0,0.0-1.0-0.0,"[{""page_index"":0,""viewing_time"":8414},{""page_index"":1,""viewing_time"":58183},{""page_index"":2,""viewing_time"":13738},{""page_index"":3,""viewing_time"":19007},{""page_index"":4,""viewing_time"":9180},{""page_index"":5,""viewing_time"":8056},{""page_index"":6,""viewing_time"":19755},{""page_index"":7,""viewing_time"":9402}]",145738,,,2245,,,,,,,,,,,,,,,,,
,instructions,267649.0,0.0-1.1-0.1,"[{""page_index"":0,""viewing_time"":5563},{""page_index"":1,""viewing_time"":14135},{""page_index"":2,""viewing_time"":10432},{""page_index"":3,""viewing_time"":21649},{""page_index"":4,""viewing_time"":8709},{""page_index"":5,""viewing_time"":6078},{""page_index"":6,""viewing_time"":16082},{""page_index"":7,""viewing_time"":3792}]",86441,,,2245,,,,,,,,,,,,,,,,,
,instructions,314987.0,0.0-3.0-0.0,"[{""page_index"":0,""viewing_time"":10916}]",10917,,,2245,,,,,,,,,,,,,,,,,
,instructions,125433.0,0.0-1.0-0.0,"[{""page_index"":0,""viewing_time"":8400},{""page_index"":1,""viewing_time"":24279},{""page_index"":2,""viewing_time"":18328},{""page_index"":3,""viewing_time"":12000},{""page_index"":4,""viewing_time"":12448},{""page_index"":5,""viewing_time"":23696},{""page_index"":6,""viewing_time"":12576},{""page_index"":7,""viewing_time"":6888}]",118615,,,2247,,,,,,,,,,,,,,,,,
,instructions,157401.0,0.0-3.0-0.0,"[{""page_index"":0,""viewing_time"":11321}]",11321,,,2247,,,,,,,,,,,,,,,,,
,instructions,121861.0,0.0-1.0-0.0,"[{""page_index"":0,""viewing_time"":9822},{""page_index"":1,""viewing_time"":24808},{""page_index"":2,""viewing_time"":12144},{""page_index"":3,""viewing_time"":15712},{""page_index"":4,""viewing_time"":7681},{""page_index"":5,""viewing_time"":11799},{""page_index"":6,""viewing_time"":25416},{""page_index"":7,""viewing_time"":10216}]",117598,,,2369,,,,,,,,,,,,,,,,,
,instructions,182594.0,0.0-3.0-0.0,"[{""page_index"":0,""viewing_time"":17600}]",17600,,,2369,,,,,,,,,,,,,,,,,
,instructions,103409.0,0.0-1.0-0.0,"[{""page_index"":0,""viewing_time"":6359},{""page_index"":1,""viewing_time"":20408},{""page_index"":2,""viewing_time"":13436},{""page_index"":3,""viewing_time"":13036},{""page_index"":4,""viewing_time"":11088},{""page_index"":5,""viewing_time"":8652},{""page_index"":6,""viewing_time"":22646},{""page_index"":7,""viewing_time"":3864}]",99490,,,2356,,,,,,,,,,,,,,,,,
,instructions,178224.0,0.0-1.1-0.1,"[{""page_index"":0,""viewing_time"":5038},{""page_index"":1,""viewing_time"":9698},{""page_index"":2,""viewing_time"":6788},{""page_index"":3,""viewing_time"":7741},{""page_index"":4,""viewing_time"":8170},{""page_index"":5,""viewing_time"":3075},{""page_index"":6,""viewing_time"":5194},{""page_index"":7,""viewing_time"":1489}]",47193,,,2356,,,,,,,,,,,,,,,,,
,instructions,260692.0,0.0-1.2-0.2,"[{""page_index"":0,""viewing_time"":2957},{""page_index"":1,""viewing_time"":4215},{""page_index"":2,""viewing_time"":4998},{""page_index"":3,""viewing_time"":7200},{""page_index"":4,""viewing_time"":2174},{""page_index"":5,""viewing_time"":1360},{""page_index"":6,""viewing_time"":1368},{""page_index"":7,""viewing_time"":1322}]",25594,,,2356,,,,,,,,,,,,,,,,,
,instructions,297502.0,0.0-3.0-0.0,"[{""page_index"":0,""viewing_time"":14704}]",14705,,,2356,,,,,,,,,,,,,,,,,
,instructions,124144.0,0.0-1.0-0.0,"[{""page_index"":0,""viewing_time"":5393},{""page_index"":1,""viewing_time"":24741},{""page_index"":2,""viewing_time"":19816},{""page_index"":3,""viewing_time"":17634},{""page_index"":4,""viewing_time"":12114},{""page_index"":5,""viewing_time"":8748},{""page_index"":6,""viewing_time"":23348},{""page_index"":7,""viewing_time"":7426}]",119222,,,2279,,,,,,,,,,,,,,,,,
,instructions,164677.0,0.0-3.0-0.0,"[{""page_index"":0,""viewing_time"":10607}]",10608,,,2279,,,,,,,,,,,,,,,,,
,instructions,206718.0,0.0-1.0-0.0,"[{""page_index"":0,""viewing_time"":11525},{""page_index"":1,""viewing_time"":48361},{""page_index"":2,""viewing_time"":21168},{""page_index"":3,""viewing_time"":29608},{""page_index"":4,""viewing_time"":19896},{""page_index"":5,""viewing_time"":13391},{""page_index"":6,""viewing_time"":32793},{""page_index"":7,""viewing_time"":24519}]",201261,,,2248,,,,,,,,,,,,,,,,,
,instructions,330568.0,0.0-1.1-0.1,"[{""page_index"":0,""viewing_time"":3514},{""page_index"":1,""viewing_time"":5767},{""page_index"":2,""viewing_time"":1393},{""page_index"":3,""viewing_time"":2416},{""page_index"":4,""viewing_time"":1655},{""page_index"":5,""viewing_time"":3265},{""page_index"":6,""viewing_time"":3737},{""page_index"":7,""viewing_time"":3144}]",24891,,,2248,,,,,,,,,,,,,,,,,
,instructions,593534.0,0.0-3.0-0.0,"[{""page_index"":0,""viewing_time"":14465}]",14465,,,2248,,,,,,,,,,,,,,,,,
,instructions,56701.0,0.0-1.0-0.0,"[{""page_index"":0,""viewing_time"":9582},{""page_index"":1,""viewing_time"":3622},{""page_index"":2,""viewing_time"":9625},{""page_index"":3,""viewing_time"":6651},{""page_index"":4,""viewing_time"":6033},{""page_index"":5,""viewing_time"":6023},{""page_index"":6,""viewing_time"":7582},{""page_index"":7,""viewing_time"":4333}]",53451,,,2249,,,,,,,,,,,,,,,,,
,instructions,119087.0,0.0-1.1-0.1,"[{""page_index"":0,""viewing_time"":2050},{""page_index"":1,""viewing_time"":7382},{""page_index"":2,""viewing_time"":4173},{""page_index"":3,""viewing_time"":7443},{""page_index"":4,""viewing_time"":3123},{""page_index"":5,""viewing_time"":3091},{""page_index"":6,""viewing_time"":10294},{""page_index"":7,""viewing_time"":3432}]",40988,,,2249,,,,,,,,,,,,,,,,,
,instructions,139065.0,0.0-3.0-0.0,"[{""page_index"":0,""viewing_time"":6423}]",6423,,,2249,,,,,,,,,,,,,,,,,
,instructions,69997.0,0.0-1.0-0.0,"[{""page_index"":0,""viewing_time"":6401},{""page_index"":1,""viewing_time"":18069},{""page_index"":2,""viewing_time"":12360},{""page_index"":3,""viewing_time"":8020},{""page_index"":4,""viewing_time"":6674},{""page_index"":5,""viewing_time"":5048},{""page_index"":6,""viewing_time"":6866},{""page_index"":7,""viewing_time"":3756}]",67195,,,2216,,,,,,,,,,,,,,,,,
,instructions,95799.0,0.0-3.0-0.0,"[{""page_index"":0,""viewing_time"":6645}]",6647,,,2216,,,,,,,,,,,,,,,,,
,instructions,87652.0,0.0-1.0-0.0,"[{""page_index"":0,""viewing_time"":8080},{""page_index"":1,""viewing_time"":13503},{""page_index"":2,""viewing_time"":10507},{""page_index"":3,""viewing_time"":11115},{""page_index"":4,""viewing_time"":18413},{""page_index"":5,""viewing_time"":8340},{""page_index"":6,""viewing_time"":6134},{""page_index"":7,""viewing_time"":9270}]",85363,,,2352,,,,,,,,,,,,,,,,,
,instructions,122044.0,0.0-3.0-0.0,"[{""page_index"":0,""viewing_time"":6086}]",6086,,,2352,,,,,,,,,,,,,,,,,
,instructions,128582.0,0.0-1.0-0.0,"[{""page_index"":0,""viewing_time"":5639},{""page_index"":1,""viewing_time"":14932},{""page_index"":2,""viewing_time"":12229},{""page_index"":3,""viewing_time"":15372},{""page_index"":4,""viewing_time"":7393},{""page_index"":5,""viewing_time"":47944},{""page_index"":6,""viewing_time"":14604},{""page_index"":7,""viewing_time"":3550}]",121664,,,2309,,,,,,,,,,,,,,,,,
,instructions,154485.0,0.0-3.0-0.0,"[{""page_index"":0,""viewing_time"":3270}]",3270,,,2309,,,,,,,,,,,,,,,,,
,instructions,87706.0,0.0-1.0-0.0,"[{""page_index"":0,""viewing_time"":8429},{""page_index"":1,""viewing_time"":14712},{""page_index"":2,""viewing_time"":8683},{""page_index"":3,""viewing_time"":7343},{""page_index"":4,""viewing_time"":14332},{""page_index"":5,""viewing_time"":9766},{""page_index"":6,""viewing_time"":15764},{""page_index"":7,""viewing_time"":5215}]",84244,,,2294,,,,,,,,,,,,,,,,,
,instructions,136660.0,0.0-3.0-0.0,"[{""page_index"":0,""viewing_time"":7788}]",7789,,,2294,,,,,,,,,,,,,,,,,
,instructions,158516.0,0.0-1.0-0.0,"[{""page_index"":0,""viewing_time"":10255},{""page_index"":1,""viewing_time"":32448},{""page_index"":2,""viewing_time"":22198},{""page_index"":3,""viewing_time"":17585},{""page_index"":4,""viewing_time"":13457},{""page_index"":5,""viewing_time"":14419},{""page_index"":6,""viewing_time"":28564},{""page_index"":7,""viewing_time"":15420}]",154347,,,2295,,,,,,,,,,,,,,,,,
,instructions,332641.0,0.0-1.1-0.1,"[{""page_index"":0,""viewing_time"":7276},{""page_index"":1,""viewing_time"":24534},{""page_index"":2,""viewing_time"":13211},{""page_index"":3,""viewing_time"":10440},{""page_index"":4,""viewing_time"":8256},{""page_index"":5,""viewing_time"":7976},{""page_index"":6,""viewing_time"":12714},{""page_index"":7,""viewing_time"":4435}]",88843,,,2295,,,,,,,,,,,,,,,,,
,instructions,465890.0,0.0-1.2-0.2,"[{""page_index"":0,""viewing_time"":6408},{""page_index"":1,""viewing_time"":22372},{""page_index"":2,""viewing_time"":6803},{""page_index"":3,""viewing_time"":11079},{""page_index"":4,""viewing_time"":9968},{""page_index"":5,""viewing_time"":5424},{""page_index"":6,""viewing_time"":19951},{""page_index"":7,""viewing_time"":2179}]",84185,,,2295,,,,,,,,,,,,,,,,,
,instructions,621559.0,0.0-1.3-0.3,"[{""page_index"":0,""viewing_time"":2791},{""page_index"":1,""viewing_time"":21237},{""page_index"":2,""viewing_time"":5658},{""page_index"":3,""viewing_time"":14022},{""page_index"":2,""viewing_time"":15980},{""page_index"":3,""viewing_time"":14096},{""page_index"":4,""viewing_time"":12796},{""page_index"":5,""viewing_time"":3906},{""page_index"":6,""viewing_time"":22687},{""page_index"":7,""viewing_time"":3913}]",117086,,,2295,,,,,,,,,,,,,,,,,
,instructions,753838.0,0.0-3.0-0.0,"[{""page_index"":0,""viewing_time"":108789}]",108789,,,2295,,,,,,,,,,,,,,,,,
,instructions,70027.0,0.0-1.0-0.0,"[{""page_index"":0,""viewing_time"":7068},{""page_index"":1,""viewing_time"":9237},{""page_index"":2,""viewing_time"":11065},{""page_index"":3,""viewing_time"":9307},{""page_index"":4,""viewing_time"":8714},{""page_index"":5,""viewing_time"":7498},{""page_index"":6,""viewing_time"":11836},{""page_index"":7,""viewing_time"":2928}]",67653,,,2217,,,,,,,,,,,,,,,,,
,instructions,98381.0,0.0-3.0-0.0,"[{""page_index"":0,""viewing_time"":5940}]",5941,,,2217,,,,,,,,,,,,,,,,,
,instructions,112397.0,0.0-1.0-0.0,"[{""page_index"":0,""viewing_time"":6860},{""page_index"":1,""viewing_time"":18043},{""page_index"":2,""viewing_time"":13662},{""page_index"":3,""viewing_time"":15479},{""page_index"":4,""viewing_time"":11527},{""page_index"":5,""viewing_time"":10065},{""page_index"":6,""viewing_time"":23761},{""page_index"":7,""viewing_time"":7832}]",107230,,,2363,,,,,,,,,,,,,,,,,
,instructions,164742.0,0.0-1.1-0.1,"[{""page_index"":0,""viewing_time"":1413},{""page_index"":1,""viewing_time"":1842},{""page_index"":2,""viewing_time"":887},{""page_index"":3,""viewing_time"":3981},{""page_index"":4,""viewing_time"":1342},{""page_index"":5,""viewing_time"":1607},{""page_index"":6,""viewing_time"":9404},{""page_index"":7,""viewing_time"":1231}]",21707,,,2363,,,,,,,,,,,,,,,,,
,instructions,232498.0,0.0-1.2-0.2,"[{""page_index"":0,""viewing_time"":2972},{""page_index"":1,""viewing_time"":14689},{""page_index"":2,""viewing_time"":8931},{""page_index"":3,""viewing_time"":9966},{""page_index"":4,""viewing_time"":651},{""page_index"":5,""viewing_time"":441},{""page_index"":6,""viewing_time"":1237},{""page_index"":7,""viewing_time"":1104}]",39992,,,2363,,,,,,,,,,,,,,,,,
,instructions,260087.0,0.0-3.0-0.0,"[{""page_index"":0,""viewing_time"":13441}]",13441,,,2363,,,,,,,,,,,,,,,,,
,instructions,85400.0,0.0-1.0-0.0,"[{""page_index"":0,""viewing_time"":5779},{""page_index"":1,""viewing_time"":22533},{""page_index"":2,""viewing_time"":12006},{""page_index"":3,""viewing_time"":11002},{""page_index"":4,""viewing_time"":6713},{""page_index"":5,""viewing_time"":10397},{""page_index"":6,""viewing_time"":8609},{""page_index"":7,""viewing_time"":4257}]",81297,,,2326,,,,,,,,,,,,,,,,,
,instructions,133600.0,0.0-3.0-0.0,"[{""page_index"":0,""viewing_time"":10392}]",10392,,,2326,,,,,,,,,,,,,,,,,
,instructions,141205.0,0.0-1.0-0.0,"[{""page_index"":0,""viewing_time"":17108},{""page_index"":1,""viewing_time"":23772},{""page_index"":2,""viewing_time"":14400},{""page_index"":3,""viewing_time"":10001},{""page_index"":4,""viewing_time"":20316},{""page_index"":5,""viewing_time"":9257},{""page_index"":6,""viewing_time"":25586},{""page_index"":7,""viewing_time"":7502}]",127943,,,2310,,,,,,,,,,,,,,,,,
,instructions,232112.0,0.0-1.1-0.1,"[{""page_index"":0,""viewing_time"":1985},{""page_index"":1,""viewing_time"":9196},{""page_index"":2,""viewing_time"":3817},{""page_index"":3,""viewing_time"":4034},{""page_index"":4,""viewing_time"":2935},{""page_index"":5,""viewing_time"":1919},{""page_index"":6,""viewing_time"":5067},{""page_index"":7,""viewing_time"":3077},{""page_index"":6,""viewing_time"":2573},{""page_index"":5,""viewing_time"":1457},{""page_index"":4,""viewing_time"":723},{""page_index"":3,""viewing_time"":1684},{""page_index"":2,""viewing_time"":12422},{""page_index"":1,""viewing_time"":3520},{""page_index"":2,""viewing_time"":1181},{""page_index"":3,""viewing_time"":1770},{""page_index"":4,""viewing_time"":1071},{""page_index"":5,""viewing_time"":834},{""page_index"":6,""viewing_time"":2375},{""page_index"":7,""viewing_time"":1803}]",63443,,,2310,,,,,,,,,,,,,,,,,
,instructions,313106.0,0.0-1.2-0.2,"[{""page_index"":0,""viewing_time"":5277},{""page_index"":1,""viewing_time"":8162},{""page_index"":2,""viewing_time"":7365},{""page_index"":3,""viewing_time"":8628},{""page_index"":4,""viewing_time"":4214},{""page_index"":5,""viewing_time"":4663},{""page_index"":6,""viewing_time"":11312},{""page_index"":7,""viewing_time"":1903}]",51525,,,2310,,,,,,,,,,,,,,,,,
,instructions,422578.0,0.0-1.3-0.3,"[{""page_index"":0,""viewing_time"":7749},{""page_index"":1,""viewing_time"":14966},{""page_index"":2,""viewing_time"":15019},{""page_index"":3,""viewing_time"":9237},{""page_index"":4,""viewing_time"":3929},{""page_index"":5,""viewing_time"":2448},{""page_index"":6,""viewing_time"":7401},{""page_index"":7,""viewing_time"":1812}]",62562,,,2310,,,,,,,,,,,,,,,,,
,instructions,678548.0,0.0-3.0-0.0,"[{""page_index"":0,""viewing_time"":20291}]",20291,,,2310,,,,,,,,,,,,,,,,,
,instructions,78056.0,0.0-1.0-0.0,"[{""page_index"":0,""viewing_time"":5673},{""page_index"":1,""viewing_time"":13696},{""page_index"":2,""viewing_time"":13568},{""page_index"":3,""viewing_time"":9456},{""page_index"":4,""viewing_time"":7833},{""page_index"":5,""viewing_time"":10431},{""page_index"":6,""viewing_time"":8209},{""page_index"":7,""viewing_time"":6407}]",75274,,,2296,,,,,,,,,,,,,,,,,
