success,trial_type,time_elapsed,internal_node_id,view_history,rt,responses,correct,pid,revealed_states,num_clicks_accrued,state_rewards,trial_id,block,trial_index,score,simulation_mode,rewards,path,actions,action_times,queries,displayed_time,trial_time,stimulus,button_pressed
,mouselab-mdp,371175.0,0.0-3.0-1.0-0.0,,"[98842, 2627, 259]",,,2201,[],"[0, 0, 0, 0, 0, 0, 0, 0, 0, 0, 0, 0, 0]","['', -2, 4, -48, -24, -2, 4, 48, -24, 4, -4, 24, -48]",6.4750170697895e+18,training,0.0,38.0,"[None, None, None]","[-2, 4, 48]","['0', '0', '5', '6', '7']","['right', 'right', 'up']","[101509, 104628, 105380]","{'click': {'state': {'target': ['5', '6', '7', '8', '1', '2', '4', '9', '10', '11', '12', '3'], 'time': [9276, 10541, 11396, 38219, 41681, 43001, 43757, 46235, 47127, 47949, 49149, 50181]}, 'edge': {'target': [], 'time': []}}, 'mouseover': {'state': {'target': ['5', '1', '5', '6', '7', '8', '1', '1', '2', '4', '9', '10', '11', '12', '3', '3', '0', '0', '0', '0', '0', '0'], 'time': [5205, 7791, 8976, 10144, 11061, 35205, 40061, 40912, 42163, 43398, 45317, 46819, 47553, 48437, 49639, 49972, 60318, 60702, 68527, 74667, 98111, 98811]}, 'edge': {'target': [], 'time': []}}, 'mouseout': {'state': {'target': ['2', '1', '5', '1', '5', '6', '7', '8', '6', '7', '1', '1', '2', '4', '1', '1', '9', '10', '11', '10', '12', '9', '1', '3', '3', '0', '5', '0', '0', '1', '3', '10', '9', '0', '3', '1', '0', '0'], 'time': [1867, 2201, 7307, 8842, 10127, 11028, 11779, 39393, 39544, 39644, 40328, 42047, 43381, 44082, 44683, 45133, 46702, 47486, 48237, 48370, 49405, 49472, 49555, 49705, 50373, 60418, 60646, 62587, 68544, 68594, 68644, 72081, 74467, 76703, 97827, 98010, 98144, 99412]}, 'edge': {'target': [], 'time': []}}}",105.87,108292.0,,
,mouselab-mdp,385487.0,0.0-3.0-1.0-1.0,,"[3538, 949, 1274]",,,2201,[],"[0, 0, 0, 0, 0, 0, 0, 0, 0, 0, 0, 0, 0]","['', 2, 4, 24, 24, -4, -8, 24, 48, -4, -4, -24, -24]",7.794057713406285e+17,training,1.0,-32.0,"[None, None, None]","[-4, -4, -24]","['0', '0', '9', '10', '12']","['left', 'left', 'down']","[7343, 8791, 10567]","{'click': {'state': {'target': [], 'time': []}, 'edge': {'target': [], 'time': []}}, 'mouseover': {'state': {'target': [], 'time': []}, 'edge': {'target': [], 'time': []}}, 'mouseout': {'state': {'target': ['0'], 'time': [4136]}, 'edge': {'target': [], 'time': []}}}",13.81,14263.0,,
,mouselab-mdp,401751.0,0.0-3.0-1.0-2.0,,"[1597, 978, 1406]",,,2201,[],"[0, 0, 0, 0, 0, 0, 0, 0, 0, 0, 0, 0, 0]","['', -2, 4, -48, -24, -4, -8, -48, -24, -2, 4, -24, 24]",4.506983446382795e+18,training,2.0,-46.0,"[None, None, None]","[-2, 4, -48]","['0', '0', '1', '2', '3']","['up', 'up', 'right']","[8285, 9765, 11661]","{'click': {'state': {'target': [], 'time': []}, 'edge': {'target': [], 'time': []}}, 'mouseover': {'state': {'target': ['0'], 'time': [6850]}, 'edge': {'target': [], 'time': []}}, 'mouseout': {'state': {'target': ['0', '0'], 'time': [6449, 6883]}, 'edge': {'target': [], 'time': []}}}",15.69,16221.0,,
,mouselab-mdp,300789.0,0.0-3.0-1.0-0.0,,"[4035, 732, 538]",,,2345,[],"[0, 0, 0, 0, 0, 0, 0, 0, 0, 0, 0, 0, 0]","['', -2, 8, 48, 24, 4, 8, 48, 48, -4, 4, 24, 24]",8.067169575405887e+17,training,0.0,59.0,"[None, None, None]","[4, 8, 48]","['0', '0', '5', '6', '7']","['right', 'right', 'up']","[6145, 7373, 8409]","{'click': {'state': {'target': ['1'], 'time': [3055]}, 'edge': {'target': [], 'time': []}}, 'mouseover': {'state': {'target': ['1', '5'], 'time': [2919, 4217]}, 'edge': {'target': [], 'time': []}}, 'mouseout': {'state': {'target': ['2', '1', '1', '5'], 'time': [1092, 1196, 3738, 4328]}, 'edge': {'target': [], 'time': []}}}",9.11,11909.0,,
,mouselab-mdp,311171.0,0.0-3.0-1.0-1.0,,"[1178, 819, 368]",,,2345,[],"[0, 0, 0, 0, 0, 0, 0, 0, 0, 0, 0, 0, 0]","['', -4, 8, 48, -48, -4, -4, -48, 48, -2, 8, 24, 48]",-4.689310195682358e+18,training,1.0,30.0,"[None, None, None]","[-2, 8, 24]","['0', '0', '9', '10', '11']","['left', 'left', 'up']","[3887, 5204, 6072]","{'click': {'state': {'target': [], 'time': []}, 'edge': {'target': [], 'time': []}}, 'mouseover': {'state': {'target': ['0'], 'time': [2807]}, 'edge': {'target': [], 'time': []}}, 'mouseout': {'state': {'target': ['0', '0'], 'time': [2773, 3308]}, 'edge': {'target': [], 'time': []}}}",9.71,10361.0,,
,mouselab-mdp,323744.0,0.0-3.0-1.0-2.0,,"[859, 355, 634]",,,2345,[],"[0, 0, 0, 0, 0, 0, 0, 0, 0, 0, 0, 0, 0]","['', -2, 8, 24, -24, -4, -4, 24, -24, -2, -4, 48, -24]",1.164914541066255e+17,training,2.0,16.0,"[None, None, None]","[-4, -4, 24]","['0', '0', '5', '6', '7']","['right', 'right', 'up']","[2617, 3469, 4601]","{'click': {'state': {'target': [], 'time': []}, 'edge': {'target': [], 'time': []}}, 'mouseover': {'state': {'target': [], 'time': []}, 'edge': {'target': [], 'time': []}}, 'mouseout': {'state': {'target': [], 'time': []}, 'edge': {'target': [], 'time': []}}}",11.76,12551.0,,
,mouselab-mdp,334950.0,0.0-3.0-1.0-3.0,,"[1927, 816, 628]",,,2345,[],"[0, 0, 0, 0, 0, 0, 0, 0, 0, 0, 0, 0, 0]","['', 4, 8, 48, 48, -4, -8, -48, 24, 4, 8, 24, 24]",-5.73655695108881e+18,training,3.0,36.0,"[None, None, None]","[4, 8, 24]","['0', '0', '9', '10', '12']","['left', 'left', 'down']","[4112, 5425, 6549]","{'click': {'state': {'target': [], 'time': []}, 'edge': {'target': [], 'time': []}}, 'mouseover': {'state': {'target': [], 'time': []}, 'edge': {'target': [], 'time': []}}, 'mouseout': {'state': {'target': ['0', '0'], 'time': [2263, 10365]}, 'edge': {'target': [], 'time': []}}}",10.19,11184.0,,
,mouselab-mdp,346439.0,0.0-3.0-1.0-4.0,,"[678, 427, 305]",,,2345,[],"[0, 0, 0, 0, 0, 0, 0, 0, 0, 0, 0, 0, 0]","['', -2, 4, -48, -24, -4, -8, -48, -24, -2, 4, -24, 24]",4.506983446382795e+18,training,4.0,-22.0,"[None, None, None]","[-2, 4, -24]","['0', '0', '1', '2', '4']","['up', 'up', 'left']","[2144, 3074, 3875]","{'click': {'state': {'target': [], 'time': []}, 'edge': {'target': [], 'time': []}}, 'mouseover': {'state': {'target': [], 'time': []}, 'edge': {'target': [], 'time': []}}, 'mouseout': {'state': {'target': ['0', '0', '0'], 'time': [1347, 1444, 6625]}, 'edge': {'target': [], 'time': []}}}",10.47,11467.0,,
,mouselab-mdp,366264.0,0.0-3.0-1.0-5.0,,"[809, 614, 536]",,,2345,[],"[0, 0, 0, 0, 0, 0, 0, 0, 0, 0, 0, 0, 0]","['', 2, 4, 24, 48, 2, -4, -24, -48, -2, -8, 48, -48]",-7.082365920985033e+18,training,5.0,-50.0,"[None, None, None]","[2, -4, -48]","['0', '0', '5', '6', '8']","['right', 'right', 'down']","[2041, 3154, 4187]","{'click': {'state': {'target': [], 'time': []}, 'edge': {'target': [], 'time': []}}, 'mouseover': {'state': {'target': [], 'time': []}, 'edge': {'target': [], 'time': []}}, 'mouseout': {'state': {'target': ['0', '0', '1', '2'], 'time': [5901, 6623, 6657, 6685]}, 'edge': {'target': [], 'time': []}}}",18.23,19804.0,,
,mouselab-mdp,650447.0,0.0-3.0-1.0-0.0,,"[14676, 5951, 5215]",,,2329,[],"[0, 0, 0, 0, 0, 0, 0, 0, 0, 0, 0, 0, 0]","['', 4, 8, -24, 24, 4, -4, -24, 24, -4, 4, -24, 48]",2.948336531417193e+18,training,0.0,-26.0,"[None, None, None]","[4, -4, -24]","['0', '0', '5', '6', '7']","['right', 'right', 'up']","[16912, 23387, 29124]","{'click': {'state': {'target': ['9', '5'], 'time': [10744, 14557]}, 'edge': {'target': [], 'time': []}}, 'mouseover': {'state': {'target': ['9', '9', '0', '9', '5'], 'time': [3543, 5351, 5715, 10299, 14077]}, 'edge': {'target': [], 'time': []}}, 'mouseout': {'state': {'target': ['2', '1', '0', '9', '9', '0', '9', '5', '6', '7', '6', '6', '7', '5'], 'time': [1198, 1221, 1829, 3594, 5402, 10249, 11421, 18426, 23136, 27225, 27344, 27598, 32118, 32151]}, 'edge': {'target': [], 'time': []}}}",29.63,32915.0,,
,mouselab-mdp,665071.0,0.0-3.0-1.0-1.0,,"[6261, 678, 1440]",,,2329,[],"[0, 0, 0, 0, 0, 0, 0, 0, 0, 0, 0, 0, 0]","['', 2, -4, 48, -24, -2, 4, 48, -48, 2, 8, -48, 24]",-3.024950732778212e+17,training,1.0,-39.0,"[None, None, None]","[2, 8, -48]","['0', '0', '9', '10', '11']","['left', 'left', 'up']","[9239, 10432, 12391]","{'click': {'state': {'target': ['9'], 'time': [6894]}, 'edge': {'target': [], 'time': []}}, 'mouseover': {'state': {'target': ['1', '9'], 'time': [3985, 6110]}, 'edge': {'target': [], 'time': []}}, 'mouseout': {'state': {'target': ['0', '1', '0', '1', '9'], 'time': [2169, 2530, 3900, 5840, 7382]}, 'edge': {'target': [], 'time': []}}}",12.91,14543.0,,
,mouselab-mdp,677255.0,0.0-3.0-1.0-2.0,,"[3682, 1813, 1319]",,,2329,[],"[0, 0, 0, 0, 0, 0, 0, 0, 0, 0, 0, 0, 0]","['', -2, 4, 24, 24, 4, 8, -48, 24, -2, 8, -48, -24]",-9.08425462156937e+18,training,2.0,-19.0,"[None, None, None]","[-2, 8, -24]","['0', '0', '9', '10', '12']","['left', 'left', 'down']","[4958, 7270, 9101]","{'click': {'state': {'target': ['1'], 'time': [3648]}, 'edge': {'target': [], 'time': []}}, 'mouseover': {'state': {'target': ['9', '1', '9'], 'time': [2108, 3320, 4267]}, 'edge': {'target': [], 'time': []}}, 'mouseout': {'state': {'target': ['0', '9', '1'], 'time': [2038, 3235, 4146]}, 'edge': {'target': [], 'time': []}}}",11.28,12110.0,,
,mouselab-mdp,690469.0,0.0-3.0-1.0-3.0,,"[3968, 586, 1397]",,,2329,[],"[0, 0, 0, 0, 0, 0, 0, 0, 0, 0, 0, 0, 0]","['', -2, 4, -24, 48, -2, 4, -24, 48, 4, -8, 24, 48]",3.364858280464458e+17,training,3.0,-23.0,"[None, None, None]","[-2, 4, -24]","['0', '0', '5', '6', '7']","['right', 'right', 'up']","[5957, 7062, 8974]","{'click': {'state': {'target': ['1'], 'time': [4640]}, 'edge': {'target': [], 'time': []}}, 'mouseover': {'state': {'target': ['1'], 'time': [4371]}, 'edge': {'target': [], 'time': []}}, 'mouseout': {'state': {'target': ['1'], 'time': [5397]}, 'edge': {'target': [], 'time': []}}}",10.99,13085.0,,
,mouselab-mdp,704365.0,0.0-3.0-1.0-4.0,,"[1548, 936, 1249]",,,2329,[],"[0, 0, 0, 0, 0, 0, 0, 0, 0, 0, 0, 0, 0]","['', -4, -4, -24, 24, -4, -8, -48, -48, 2, -4, -24, 24]",-5.712514638697657e+18,training,4.0,22.0,"[None, None, None]","[2, -4, 24]","['0', '0', '9', '10', '12']","['left', 'left', 'down']","[4076, 5533, 7293]","{'click': {'state': {'target': [], 'time': []}, 'edge': {'target': [], 'time': []}}, 'mouseover': {'state': {'target': [], 'time': []}, 'edge': {'target': [], 'time': []}}, 'mouseout': {'state': {'target': ['0'], 'time': [752]}, 'edge': {'target': [], 'time': []}}}",11.53,13829.0,,
,mouselab-mdp,717467.0,0.0-3.0-1.0-5.0,,"[2509, 471, 728]",,,2329,[],"[0, 0, 0, 0, 0, 0, 0, 0, 0, 0, 0, 0, 0]","['', 2, 4, 24, 48, 2, -4, -24, -48, -2, -8, 48, -48]",-7.082365920985033e+18,training,5.0,53.0,"[None, None, None]","[2, 4, 48]","['0', '0', '1', '2', '4']","['up', 'up', 'left']","[4261, 5261, 6509]","{'click': {'state': {'target': ['1'], 'time': [3037]}, 'edge': {'target': [], 'time': []}}, 'mouseover': {'state': {'target': ['1', '2', '1'], 'time': [2389, 2445, 2694]}, 'edge': {'target': [], 'time': []}}, 'mouseout': {'state': {'target': ['0', '1', '2', '1', '0'], 'time': [2336, 2407, 2643, 12536, 12578]}, 'edge': {'target': [], 'time': []}}}",11.75,13026.0,,
,mouselab-mdp,727803.0,0.0-3.0-1.0-6.0,,"[2289, 633, 1077]",,,2329,[],"[0, 0, 0, 0, 0, 0, 0, 0, 0, 0, 0, 0, 0]","['', 2, -8, 48, -48, 4, -4, 48, 24, 2, -8, -48, -48]",8.638557165232621e+17,training,6.0,41.0,"[None, None, None]","[2, -8, 48]","['0', '0', '1', '2', '3']","['up', 'up', 'right']","[4360, 5511, 7105]","{'click': {'state': {'target': ['1'], 'time': [3115]}, 'edge': {'target': [], 'time': []}}, 'mouseover': {'state': {'target': ['1', '1'], 'time': [2552, 2886]}, 'edge': {'target': [], 'time': []}}, 'mouseout': {'state': {'target': ['1', '0', '1'], 'time': [1204, 2511, 2604]}, 'edge': {'target': [], 'time': []}}}",9.08,10265.0,,
,mouselab-mdp,737586.0,0.0-3.0-1.0-7.0,,"[2399, 1318, 1380]",,,2329,[],"[0, 0, 0, 0, 0, 0, 0, 0, 0, 0, 0, 0, 0]","['', -2, 8, 24, 48, -2, -8, 48, 48, 2, 4, 24, 48]",1.0137673368414092e+18,training,7.0,29.0,"[None, None, None]","[2, 4, 24]","['0', '0', '9', '10', '11']","['left', 'left', 'up']","[4216, 6049, 7937]","{'click': {'state': {'target': ['9'], 'time': [3071]}, 'edge': {'target': [], 'time': []}}, 'mouseover': {'state': {'target': ['9'], 'time': [2719]}, 'edge': {'target': [], 'time': []}}, 'mouseout': {'state': {'target': ['1', '0', '9'], 'time': [1384, 2679, 5646]}, 'edge': {'target': [], 'time': []}}}",8.82,9713.0,,
,mouselab-mdp,748097.0,0.0-3.0-1.0-8.0,,"[3237, 1185, 597]",,,2329,[],"[0, 0, 0, 0, 0, 0, 0, 0, 0, 0, 0, 0, 0]","['', 4, 8, -48, -48, -4, 8, -48, -24, 4, 4, 24, -24]",5.673770806327289e+18,training,8.0,-37.0,"[None, None, None]","[4, 8, -48]","['0', '0', '1', '2', '3']","['up', 'up', 'right']","[5186, 6898, 8019]","{'click': {'state': {'target': ['1'], 'time': [4277]}, 'edge': {'target': [], 'time': []}}, 'mouseover': {'state': {'target': ['1'], 'time': [3985]}, 'edge': {'target': [], 'time': []}}, 'mouseout': {'state': {'target': ['0'], 'time': [1576]}, 'edge': {'target': [], 'time': []}}}",9.95,10434.0,,
,mouselab-mdp,759161.0,0.0-3.0-1.0-9.0,,"[3186, 535, 545]",,,2329,[],"[0, 0, 0, 0, 0, 0, 0, 0, 0, 0, 0, 0, 0]","['', 2, 8, -48, -48, -4, 8, 24, 24, -2, 8, -24, 48]",-3.2359844448818867e+18,training,9.0,-39.0,"[None, None, None]","[2, 8, -48]","['0', '0', '1', '2', '4']","['up', 'up', 'left']","[5327, 6376, 7432]","{'click': {'state': {'target': ['9'], 'time': [3042]}, 'edge': {'target': [], 'time': []}}, 'mouseover': {'state': {'target': ['9', '0', '5'], 'time': [2725, 3794, 3854]}, 'edge': {'target': [], 'time': []}}, 'mouseout': {'state': {'target': ['1', '0', '0', '9', '0'], 'time': [1604, 1718, 1920, 3760, 3812]}, 'edge': {'target': [], 'time': []}}}",9.14,10991.0,,
,mouselab-mdp,769433.0,0.0-3.0-1.0-10.0,,"[1108, 540, 1108]",,,2329,[],"[0, 0, 0, 0, 0, 0, 0, 0, 0, 0, 0, 0, 0]","['', 4, -4, -48, 48, -4, 8, 48, -24, 2, 4, 24, 48]",-8.591125776345143e+18,training,10.0,-48.0,"[None, None, None]","[4, -4, -48]","['0', '0', '1', '2', '3']","['up', 'up', 'right']","[2692, 3748, 5378]","{'click': {'state': {'target': [], 'time': []}, 'edge': {'target': [], 'time': []}}, 'mouseover': {'state': {'target': [], 'time': []}, 'edge': {'target': [], 'time': []}}, 'mouseout': {'state': {'target': ['5', '0'], 'time': [964, 1203]}, 'edge': {'target': [], 'time': []}}}",9.59,10203.0,,
,mouselab-mdp,780647.0,0.0-3.0-1.0-11.0,,"[1875, 630, 1045]",,,2329,[],"[0, 0, 0, 0, 0, 0, 0, 0, 0, 0, 0, 0, 0]","['', -2, 4, -48, -24, -2, 4, 48, -24, 4, -4, 24, -48]",6.4750170697895e+18,training,11.0,23.0,"[None, None, None]","[4, -4, 24]","['0', '0', '9', '10', '11']","['left', 'left', 'up']","[3435, 4579, 6138]","{'click': {'state': {'target': ['5'], 'time': [2561]}, 'edge': {'target': [], 'time': []}}, 'mouseover': {'state': {'target': ['5', '0', '9'], 'time': [2259, 3147, 3248]}, 'edge': {'target': [], 'time': []}}, 'mouseout': {'state': {'target': ['0', '0', '5', '0'], 'time': [971, 2123, 3132, 3183]}, 'edge': {'target': [], 'time': []}}}",10.56,11089.0,,
,mouselab-mdp,792375.0,0.0-3.0-1.0-12.0,,"[2111, 907, 2598]",,,2329,[],"[0, 0, 0, 0, 0, 0, 0, 0, 0, 0, 0, 0, 0]","['', -2, -4, 48, 24, -2, -4, -48, -24, -4, -4, 24, 48]",-3.1773427201591757e+18,training,12.0,39.0,"[None, None, None]","[-4, -4, 48]","['0', '0', '9', '10', '12']","['left', 'left', 'down']","[3588, 5013, 8132]","{'click': {'state': {'target': ['1'], 'time': [2613]}, 'edge': {'target': [], 'time': []}}, 'mouseover': {'state': {'target': ['1', '1'], 'time': [2058, 2292]}, 'edge': {'target': [], 'time': []}}, 'mouseout': {'state': {'target': ['9', '0', '1'], 'time': [686, 1072, 2093]}, 'edge': {'target': [], 'time': []}}}",10.48,11659.0,,
,mouselab-mdp,801712.0,0.0-3.0-1.0-13.0,,"[2353, 598, 1224]",,,2329,[],"[0, 0, 0, 0, 0, 0, 0, 0, 0, 0, 0, 0, 0]","['', -4, 8, 24, 24, -2, -8, -48, -24, -4, -8, 24, 24]",5.782292848891635e+18,training,13.0,-59.0,"[None, None, None]","[-2, -8, -48]","['0', '0', '5', '6', '7']","['right', 'right', 'up']","[3835, 4962, 6699]","{'click': {'state': {'target': ['1'], 'time': [2708]}, 'edge': {'target': [], 'time': []}}, 'mouseover': {'state': {'target': ['1'], 'time': [2317]}, 'edge': {'target': [], 'time': []}}, 'mouseout': {'state': {'target': ['1', '0'], 'time': [1006, 2180]}, 'edge': {'target': [], 'time': []}}}",8.49,9267.0,,
,mouselab-mdp,814872.0,0.0-3.0-1.0-14.0,,"[1557, 508, 1896]",,,2329,[],"[0, 0, 0, 0, 0, 0, 0, 0, 0, 0, 0, 0, 0]","['', 4, -8, -24, -24, -4, 8, -24, 24, -2, -8, -48, -48]",3.457294074559537e+18,training,14.0,-29.0,"[None, None, None]","[4, -8, -24]","['0', '0', '1', '2', '3']","['up', 'up', 'right']","[4191, 5207, 7624]","{'click': {'state': {'target': ['1'], 'time': [3703]}, 'edge': {'target': [], 'time': []}}, 'mouseover': {'state': {'target': ['1'], 'time': [3206]}, 'edge': {'target': [], 'time': []}}, 'mouseout': {'state': {'target': ['1'], 'time': [1115]}, 'edge': {'target': [], 'time': []}}}",12.64,13088.0,,
,mouselab-mdp,825143.0,0.0-3.0-1.0-15.0,,"[3157, 529, 835]",,,2329,[],"[0, 0, 0, 0, 0, 0, 0, 0, 0, 0, 0, 0, 0]","['', -4, -4, -24, 24, -2, 4, 24, 24, 2, -8, 48, 48]",-3.858448030437114e+18,training,15.0,41.0,"[None, None, None]","[2, -8, 48]","['0', '0', '9', '10', '12']","['left', 'left', 'down']","[4515, 5546, 6898]","{'click': {'state': {'target': ['1'], 'time': [3753]}, 'edge': {'target': [], 'time': []}}, 'mouseover': {'state': {'target': ['1'], 'time': [3463]}, 'edge': {'target': [], 'time': []}}, 'mouseout': {'state': {'target': ['1', '0'], 'time': [779, 1392]}, 'edge': {'target': [], 'time': []}}}",9.36,10194.0,,
,mouselab-mdp,837853.0,0.0-3.0-1.0-16.0,,"[566, 502, 397]",,,2329,[],"[0, 0, 0, 0, 0, 0, 0, 0, 0, 0, 0, 0, 0]","['', 4, -8, 24, 24, 2, 4, -24, 24, 4, -4, 48, -48]",-7.876836446114166e+18,training,16.0,-48.0,"[None, None, None]","[4, -4, -48]","['0', '0', '9', '10', '12']","['left', 'left', 'down']","[2037, 3062, 3973]","{'click': {'state': {'target': [], 'time': []}, 'edge': {'target': [], 'time': []}}, 'mouseover': {'state': {'target': [], 'time': []}, 'edge': {'target': [], 'time': []}}, 'mouseout': {'state': {'target': ['1'], 'time': [1084]}, 'edge': {'target': [], 'time': []}}}",11.47,12643.0,,
,mouselab-mdp,847580.0,0.0-3.0-1.0-17.0,,"[2194, 446, 729]",,,2329,[],"[0, 0, 0, 0, 0, 0, 0, 0, 0, 0, 0, 0, 0]","['', -2, 4, 24, -48, 4, 8, 48, -24, 2, -4, 24, 48]",2.9113856902925153e+18,training,17.0,59.0,"[None, None, None]","[4, 8, 48]","['0', '0', '5', '6', '7']","['right', 'right', 'up']","[3142, 4101, 5349]","{'click': {'state': {'target': ['5'], 'time': [2239]}, 'edge': {'target': [], 'time': []}}, 'mouseover': {'state': {'target': ['1', '5'], 'time': [1406, 1966]}, 'edge': {'target': [], 'time': []}}, 'mouseout': {'state': {'target': ['0', '1', '5', '0', '0'], 'time': [600, 1880, 7998, 8593, 9393]}, 'edge': {'target': [], 'time': []}}}",7.95,9660.0,,
,mouselab-mdp,855956.0,0.0-3.0-1.0-18.0,,"[493, 1348, 414]",,,2329,[],"[0, 0, 0, 0, 0, 0, 0, 0, 0, 0, 0, 0, 0]","['', 2, -8, 48, -48, -2, 8, -48, 24, 2, 8, -24, -48]",-5.298439851260358e+18,training,18.0,30.0,"[None, None, None]","[-2, 8, 24]","['0', '0', '5', '6', '8']","['right', 'right', 'down']","[1441, 3313, 4240]","{'click': {'state': {'target': [], 'time': []}, 'edge': {'target': [], 'time': []}}, 'mouseover': {'state': {'target': [], 'time': []}, 'edge': {'target': [], 'time': []}}, 'mouseout': {'state': {'target': ['0', '0'], 'time': [627, 5677]}, 'edge': {'target': [], 'time': []}}}",7.95,8304.0,,
,mouselab-mdp,868682.0,0.0-3.0-1.0-19.0,,"[1816, 423, 666]",,,2329,[],"[0, 0, 0, 0, 0, 0, 0, 0, 0, 0, 0, 0, 0]","['', -2, 8, 24, -48, -4, 4, -48, -48, -4, 8, 24, 48]",6.73604779986745e+18,training,19.0,-49.0,"[None, None, None]","[-4, 4, -48]","['0', '0', '5', '6', '8']","['right', 'right', 'down']","[2884, 3827, 5005]","{'click': {'state': {'target': ['5'], 'time': [1875]}, 'edge': {'target': [], 'time': []}}, 'mouseover': {'state': {'target': ['0', '5'], 'time': [1405, 1475]}, 'edge': {'target': [], 'time': []}}, 'mouseout': {'state': {'target': ['0', '5'], 'time': [1442, 12245]}, 'edge': {'target': [], 'time': []}}}",11.07,12656.0,,
,mouselab-mdp,879009.0,0.0-3.0-2.0-0.0,,"[1401, 609, 2752]",,,2329,[],"[0, 0, 0, 0, 0, 0, 0, 0, 0, 0, 0, 0, 0]","['', -2, 4, -24, -24, -4, -8, 48, -24, 4, -8, -24, 24]",-5.123434937761383e+16,test,20.0,-28.0,"[None, None, None]","[4, -8, -24]","['0', '0', '9', '10', '11']","['left', 'left', 'up']","[2246, 3358, 6630]","{'click': {'state': {'target': [], 'time': []}, 'edge': {'target': [], 'time': []}}, 'mouseover': {'state': {'target': [], 'time': []}, 'edge': {'target': [], 'time': []}}, 'mouseout': {'state': {'target': ['0'], 'time': [9204]}, 'edge': {'target': [], 'time': []}}}",9.85,10254.0,,
,mouselab-mdp,887664.0,0.0-3.0-2.0-1.0,,"[1422, 416, 195]",,,2329,[],"[0, 0, 0, 0, 0, 0, 0, 0, 0, 0, 0, 0, 0]","['', 4, 4, 48, -24, 4, -4, -48, 48, 2, -8, 48, 24]",-8.580200434703876e+18,test,21.0,55.0,"[None, None, None]","[4, 4, 48]","['0', '0', '1', '2', '3']","['up', 'up', 'right']","[2355, 3283, 3987]","{'click': {'state': {'target': ['1'], 'time': [1925]}, 'edge': {'target': [], 'time': []}}, 'mouseover': {'state': {'target': ['1'], 'time': [1578]}, 'edge': {'target': [], 'time': []}}, 'mouseout': {'state': {'target': ['0'], 'time': [677]}, 'edge': {'target': [], 'time': []}}}",7.93,8586.0,,
,mouselab-mdp,898031.0,0.0-3.0-2.0-2.0,,"[2245, 504, 497]",,,2329,[],"[0, 0, 0, 0, 0, 0, 0, 0, 0, 0, 0, 0, 0]","['', -4, -4, 48, -24, -4, 4, -48, 48, -2, -8, 24, 48]",5.850565339829589e+18,test,22.0,37.0,"[None, None, None]","[-2, -8, 48]","['0', '0', '9', '10', '12']","['left', 'left', 'down']","[4404, 5421, 6437]","{'click': {'state': {'target': ['5'], 'time': [3175]}, 'edge': {'target': [], 'time': []}}, 'mouseover': {'state': {'target': ['0', '5'], 'time': [2809, 2876]}, 'edge': {'target': [], 'time': []}}, 'mouseout': {'state': {'target': ['1', '0', '0', '0'], 'time': [748, 833, 1091, 2842]}, 'edge': {'target': [], 'time': []}}}",9.16,10299.0,,
,mouselab-mdp,910568.0,0.0-3.0-2.0-3.0,,"[3643, 377, 567]",,,2329,[],"[0, 0, 0, 0, 0, 0, 0, 0, 0, 0, 0, 0, 0]","['', 2, 4, -24, 48, -2, -8, 48, 24, 4, 8, -48, -48]",-2.5975390318514273e+18,test,23.0,-20.0,"[None, None, None]","[2, 4, -24]","['0', '0', '1', '2', '3']","['up', 'up', 'right']","[5673, 6569, 7657]","{'click': {'state': {'target': ['5', '1'], 'time': [3589, 4797]}, 'edge': {'target': [], 'time': []}}, 'mouseover': {'state': {'target': ['9', '9', '0', '5', '1'], 'time': [2540, 2945, 3122, 3319, 4542]}, 'edge': {'target': [], 'time': []}}, 'mouseout': {'state': {'target': ['5', '0', '9', '9', '0', '5'], 'time': [1250, 2519, 2591, 3081, 3248, 4353]}, 'edge': {'target': [], 'time': []}}}",12.04,12464.0,,
,mouselab-mdp,921132.0,0.0-3.0-2.0-4.0,,"[590, 414, 968]",,,2329,[],"[0, 0, 0, 0, 0, 0, 0, 0, 0, 0, 0, 0, 0]","['', -2, -8, 24, 24, -2, -8, 24, -24, 4, -4, 24, -48]",7.419235085028046e+18,test,24.0,14.0,"[None, None, None]","[-2, -8, 24]","['0', '0', '1', '2', '4']","['up', 'up', 'left']","[1683, 2637, 4125]","{'click': {'state': {'target': [], 'time': []}, 'edge': {'target': [], 'time': []}}, 'mouseover': {'state': {'target': [], 'time': []}, 'edge': {'target': [], 'time': []}}, 'mouseout': {'state': {'target': ['1', '0', '0', '0'], 'time': [608, 714, 983, 5788]}, 'edge': {'target': [], 'time': []}}}",10.10,10495.0,,
,mouselab-mdp,932044.0,0.0-3.0-2.0-5.0,,"[2378, 396, 523]",,,2329,[],"[0, 0, 0, 0, 0, 0, 0, 0, 0, 0, 0, 0, 0]","['', 4, -8, -48, -24, -2, 8, 24, 48, -2, -8, -48, -24]",6.562770673904911e+18,test,25.0,-53.0,"[None, None, None]","[4, -8, -48]","['0', '0', '1', '2', '3']","['up', 'up', 'right']","[3682, 4594, 5666]","{'click': {'state': {'target': ['1'], 'time': [3148]}, 'edge': {'target': [], 'time': []}}, 'mouseover': {'state': {'target': ['1'], 'time': [2902]}, 'edge': {'target': [], 'time': []}}, 'mouseout': {'state': {'target': ['1', '1', '0', '0'], 'time': [966, 8127, 8198, 10262]}, 'edge': {'target': [], 'time': []}}}",8.31,10841.0,,
,mouselab-mdp,943013.0,0.0-3.0-2.0-6.0,,"[2192, 489, 1067]",,,2329,[],"[0, 0, 0, 0, 0, 0, 0, 0, 0, 0, 0, 0, 0]","['', -2, 8, 48, 24, -2, 4, -48, 48, 4, -8, -48, -48]",-7.383638292178567e+18,test,26.0,-53.0,"[None, None, None]","[4, -8, -48]","['0', '0', '9', '10', '11']","['left', 'left', 'up']","[3132, 4131, 5707]","{'click': {'state': {'target': ['9'], 'time': [2391]}, 'edge': {'target': [], 'time': []}}, 'mouseover': {'state': {'target': ['9'], 'time': [2168]}, 'edge': {'target': [], 'time': []}}, 'mouseout': {'state': {'target': ['0', '9', '0', '1'], 'time': [611, 9440, 10466, 10515]}, 'edge': {'target': [], 'time': []}}}",8.94,10898.0,,
,mouselab-mdp,960012.0,0.0-3.0-2.0-7.0,,"[4555, 3767, 3058]",,,2329,[],"[0, 0, 0, 0, 0, 0, 0, 0, 0, 0, 0, 0, 0]","['', -2, -4, 48, -24, 4, -8, 48, -48, 2, -8, 24, -48]",-8.867212192286324e+18,test,27.0,42.0,"[None, None, None]","[4, -8, 48]","['0', '0', '5', '6', '7']","['right', 'right', 'up']","[5508, 9788, 13356]","{'click': {'state': {'target': ['1', '5'], 'time': [1734, 3991]}, 'edge': {'target': [], 'time': []}}, 'mouseover': {'state': {'target': ['1', '2', '9', '9', '0', '5', '5', '6', '0'], 'time': [1465, 2682, 2999, 3211, 3343, 3395, 3815, 4572, 5018]}, 'edge': {'target': [], 'time': []}}, 'mouseout': {'state': {'target': ['2', '1', '1', '2', '9', '9', '0', '5', '5', '6', '5', '0', '5', '6'], 'time': [517, 586, 2646, 2830, 3020, 3311, 3377, 3599, 4536, 4845, 4914, 7722, 7910, 11059]}, 'edge': {'target': [], 'time': []}}}",13.87,16932.0,,
,mouselab-mdp,98009.0,0.0-3.0-1.0-0.0,,"[18307, 831, 5761]",,,2339,[],"[0, 0, 0, 0, 0, 0, 0, 0, 0, 0, 0, 0, 0]","['', 4, 8, 48, 48, -4, -8, -48, 24, 4, 8, 24, 24]",-5.73655695108881e+18,training,0.0,54.0,"[None, None, None]","[4, 8, 48]","['0', '0', '1', '2', '4']","['up', 'up', 'left']","[21478, 22805, 29072]","{'click': {'state': {'target': ['5', '1', '9', '10', '2', '6'], 'time': [11134, 12236, 13094, 14548, 15767, 16551]}, 'edge': {'target': [], 'time': []}}, 'mouseover': {'state': {'target': ['5', '1', '9', '10', '12', '10', '2', '6', '8', '0', '0'], 'time': [4799, 11812, 12809, 13679, 13762, 14178, 15095, 16249, 17315, 18868, 19253]}, 'edge': {'target': [], 'time': []}}, 'mouseout': {'state': {'target': ['1', '0', '0', '5', '1', '9', '10', '12', '10', '2', '5', '6', '8', '5', '1', '0', '0', '1', '1', '3', '2', '4', '9'], 'time': [276, 342, 1429, 11659, 12660, 13477, 13727, 14128, 15013, 16115, 16215, 17209, 17716, 17816, 18819, 18918, 19303, 21305, 22591, 25947, 26233, 30767, 30836]}, 'edge': {'target': [], 'time': []}}}",29.58,32329.0,,
,mouselab-mdp,113988.0,0.0-3.0-1.0-1.0,,"[9426, 114, 258]",,,2339,[],"[0, 0, 0, 0, 0, 0, 0, 0, 0, 0, 0, 0, 0]","['', 2, -8, 48, -48, 4, -4, 48, 24, 2, -8, -48, -48]",8.638557165232621e+17,training,1.0,38.0,"[None, None, None]","[2, -8, 48]","['0', '0', '1', '2', '3']","['up', 'up', 'right']","[11421, 12029, 12792]","{'click': {'state': {'target': ['8', '12', '4', '3'], 'time': [5183, 6254, 8141, 8886]}, 'edge': {'target': [], 'time': []}}, 'mouseover': {'state': {'target': ['5', '8', '8', '12', '4', '4', '11', '4', '2', '3'], 'time': [2739, 4654, 4786, 6038, 6839, 7106, 7373, 7690, 8542, 8608]}, 'edge': {'target': [], 'time': []}}, 'mouseout': {'state': {'target': ['0', '5', '8', '8', '12', '4', '4', '11', '4', '2', '3', '0'], 'time': [2716, 4620, 4669, 5653, 6773, 6874, 7338, 7641, 8525, 8575, 9375, 14181]}, 'edge': {'target': [], 'time': []}}}",13.28,15918.0,,
,mouselab-mdp,126724.0,0.0-3.0-1.0-2.0,,"[4840, 294, 371]",,,2339,[],"[0, 0, 0, 0, 0, 0, 0, 0, 0, 0, 0, 0, 0]","['', 4, 4, 48, 24, 4, 8, -24, -48, 2, -4, -48, 24]",-4.315514392980278e+18,training,2.0,52.0,"[None, None, None]","[4, 4, 48]","['0', '0', '1', '2', '3']","['up', 'up', 'right']","[6525, 7328, 8200]","{'click': {'state': {'target': ['12', '8', '7', '3'], 'time': [2461, 3619, 4432, 5265]}, 'edge': {'target': [], 'time': []}}, 'mouseover': {'state': {'target': ['12', '12', '8', '6', '7', '3', '2', '1', '0'], 'time': [2035, 2254, 3253, 4072, 4137, 5096, 5490, 5808, 5909]}, 'edge': {'target': [], 'time': []}}, 'mouseout': {'state': {'target': ['0', '12', '12', '8', '6', '7', '3', '2', '1', '0', '0'], 'time': [1985, 2069, 2704, 4039, 4089, 4874, 5423, 5779, 5858, 6258, 9095]}, 'edge': {'target': [], 'time': []}}}",11.69,12669.0,,
,mouselab-mdp,138962.0,0.0-3.0-1.0-3.0,,"[4878, 368, 884]",,,2339,[],"[0, 0, 0, 0, 0, 0, 0, 0, 0, 0, 0, 0, 0]","['', -2, 4, -24, 48, -2, 8, 48, 48, -2, -8, -48, -24]",-8.320322614546437e+17,training,3.0,53.0,"[None, None, None]","[-2, 8, 48]","['0', '0', '5', '6', '8']","['right', 'right', 'down']","[5924, 6791, 8175]","{'click': {'state': {'target': ['8'], 'time': [4462]}, 'edge': {'target': [], 'time': []}}, 'mouseover': {'state': {'target': ['0', '5', '6', '6', '8'], 'time': [1941, 2198, 2348, 2633, 3885]}, 'edge': {'target': [], 'time': []}}, 'mouseout': {'state': {'target': ['0', '0', '0', '5', '6', '6', '8'], 'time': [595, 1064, 2101, 2314, 2498, 3817, 9035]}, 'edge': {'target': [], 'time': []}}}",10.05,12134.0,,
,mouselab-mdp,152350.0,0.0-3.0-1.0-4.0,,"[8935, 229, 332]",,,2339,[],"[0, 0, 0, 0, 0, 0, 0, 0, 0, 0, 0, 0, 0]","['', -2, 8, -24, 24, 2, -8, -48, -24, 4, -4, 48, -48]",-6.373051720525899e+18,training,4.0,42.0,"[None, None, None]","[4, -4, 48]","['0', '0', '9', '10', '11']","['left', 'left', 'up']","[10148, 10884, 11719]","{'click': {'state': {'target': ['8', '12', '4', '7', '3', '11'], 'time': [2998, 3837, 5285, 6739, 8126, 8912]}, 'edge': {'target': [], 'time': []}}, 'mouseover': {'state': {'target': ['5', '6', '8', '12', '10', '11', '4', '2', '3', '7', '2', '3', '1', '11', '10', '9', '9', '9'], 'time': [2175, 2609, 2676, 3502, 4344, 4394, 4929, 5812, 5896, 6446, 7231, 7364, 8450, 8650, 9334, 9501, 9684, 9968]}, 'edge': {'target': [], 'time': []}}, 'mouseout': {'state': {'target': ['0', '0', '5', '6', '8', '12', '10', '11', '4', '2', '3', '7', '2', '3', '1', '11', '10', '9', '9', '9'], 'time': [873, 2108, 2408, 2625, 3360, 4312, 4361, 4862, 5784, 5862, 6397, 7149, 7266, 8367, 8566, 9299, 9352, 9551, 9716, 10068]}, 'edge': {'target': [], 'time': []}}}",12.22,13331.0,,
,mouselab-mdp,167220.0,0.0-3.0-1.0-5.0,,"[8433, 417, 859]",,,2339,[],"[0, 0, 0, 0, 0, 0, 0, 0, 0, 0, 0, 0, 0]","['', 4, -8, -24, -24, -4, 8, -24, 24, -2, -8, -48, -48]",3.457294074559537e+18,training,5.0,22.0,"[None, None, None]","[-4, 8, 24]","['0', '0', '5', '6', '8']","['right', 'right', 'down']","[10292, 11212, 12571]","{'click': {'state': {'target': ['8', '7', '3', '4', '11', '12'], 'time': [3172, 4636, 5334, 5926, 6513, 7234]}, 'edge': {'target': [], 'time': []}}, 'mouseover': {'state': {'target': ['5', '6', '8', '6', '7', '3', '2', '4', '11', '10', '12'], 'time': [2499, 2680, 2882, 3519, 3583, 4950, 5569, 5717, 6286, 6704, 6870]}, 'edge': {'target': [], 'time': []}}, 'mouseout': {'state': {'target': ['0', '5', '6', '8', '6', '7', '3', '2', '4', '11', '10', '12'], 'time': [2465, 2629, 2715, 3416, 3549, 4902, 5536, 5619, 6153, 6688, 6804, 7637]}, 'edge': {'target': [], 'time': []}}}",13.06,14807.0,,
,mouselab-mdp,178181.0,0.0-3.0-1.0-6.0,,"[3172, 169, 297]",,,2339,[],"[0, 0, 0, 0, 0, 0, 0, 0, 0, 0, 0, 0, 0]","['', 2, -4, -48, -24, -2, -4, 48, -24, 4, 4, 48, -24]",7.520829653297501e+18,training,6.0,53.0,"[None, None, None]","[4, 4, 48]","['0', '0', '9', '10', '11']","['left', 'left', 'up']","[4296, 4964, 5759]","{'click': {'state': {'target': ['3', '4', '11'], 'time': [1834, 2469, 3068]}, 'edge': {'target': [], 'time': []}}, 'mouseover': {'state': {'target': ['5', '3', '2', '4', '11', '10', '12'], 'time': [1371, 1640, 2007, 2207, 2757, 3291, 3407]}, 'edge': {'target': [], 'time': []}}, 'mouseout': {'state': {'target': ['0', '5', '3', '2', '4', '11', '10', '12'], 'time': [1140, 1387, 1973, 2056, 2607, 3223, 3357, 3675]}, 'edge': {'target': [], 'time': []}}}",10.15,10890.0,,
,mouselab-mdp,206649.0,0.0-3.0-1.0-7.0,,"[6996, 83, 148]",,,2339,[],"[0, 0, 0, 0, 0, 0, 0, 0, 0, 0, 0, 0, 0]","['', -2, 8, -24, -24, -2, 4, -48, 24, -4, -8, 48, -48]",5.44134319392284e+18,training,7.0,30.0,"[None, None, None]","[-4, -8, 48]","['0', '0', '9', '10', '11']","['left', 'left', 'up']","[8325, 8914, 9566]","{'click': {'state': {'target': ['12', '8', '7', '4', '3', '11'], 'time': [2742, 3561, 4413, 5758, 6587, 7202]}, 'edge': {'target': [], 'time': []}}, 'mouseover': {'state': {'target': ['0', '9', '10', '12', '12', '8', '8', '6', '7', '1', '11', '4', '2', '3', '3', '1', '11'], 'time': [2087, 2137, 2189, 2338, 2538, 3138, 3347, 4090, 4140, 4876, 4958, 5526, 6127, 6160, 6393, 6795, 6978]}, 'edge': {'target': [], 'time': []}}, 'mouseout': {'state': {'target': ['0', '0', '9', '10', '12', '12', '8', '8', '6', '7', '1', '11', '4', '2', '3', '3', '1', '11', '0', '5', '5', '0', '0'], 'time': [1152, 2103, 2155, 2287, 2472, 3072, 3172, 4073, 4123, 4843, 4890, 5491, 6111, 6143, 6186, 6743, 6811, 7629, 11795, 25905, 26251, 26449, 26906]}, 'edge': {'target': [], 'time': []}}}",10.33,28390.0,,
,mouselab-mdp,216872.0,0.0-3.0-1.0-8.0,,"[2644, 94, 696]",,,2339,[],"[0, 0, 0, 0, 0, 0, 0, 0, 0, 0, 0, 0, 0]","['', -2, 4, -24, 48, -2, 4, -24, 48, 4, -8, 24, 48]",3.364858280464458e+17,training,8.0,49.0,"[None, None, None]","[-2, 4, 48]","['0', '0', '5', '6', '8']","['right', 'right', 'down']","[3671, 4275, 5471]","{'click': {'state': {'target': ['8'], 'time': [2130]}, 'edge': {'target': [], 'time': []}}, 'mouseover': {'state': {'target': ['0', '5', '8', '6', '7', '7'], 'time': [1160, 1552, 1769, 2337, 2437, 2652]}, 'edge': {'target': [], 'time': []}}, 'mouseout': {'state': {'target': ['0', '0', '5', '8', '6', '7', '7', '6', '8'], 'time': [815, 1519, 1702, 2287, 2375, 2452, 2854, 5724, 9746]}, 'edge': {'target': [], 'time': []}}}",9.03,10155.0,,
,mouselab-mdp,225535.0,0.0-3.0-1.0-9.0,,"[2470, 211, 314]",,,2339,[],"[0, 0, 0, 0, 0, 0, 0, 0, 0, 0, 0, 0, 0]","['', 4, -4, 24, 24, 4, 4, 48, -48, 4, -8, -24, 48]",8.695590532405199e+18,training,9.0,43.0,"[None, None, None]","[4, -8, 48]","['0', '0', '9', '10', '12']","['left', 'left', 'down']","[3513, 4232, 5052]","{'click': {'state': {'target': ['12'], 'time': [2255]}, 'edge': {'target': [], 'time': []}}, 'mouseover': {'state': {'target': ['9', '12'], 'time': [1898, 2000]}, 'edge': {'target': [], 'time': []}}, 'mouseout': {'state': {'target': ['0', '9', '12'], 'time': [1882, 1932, 6622]}, 'edge': {'target': [], 'time': []}}}",8.04,8583.0,,
,mouselab-mdp,236488.0,0.0-3.0-1.0-10.0,,"[4236, 108, 191]",,,2339,[],"[0, 0, 0, 0, 0, 0, 0, 0, 0, 0, 0, 0, 0]","['', -2, -4, 48, -24, 4, -8, 48, -48, 2, -8, 24, -48]",-8.867212192286324e+18,training,10.0,38.0,"[None, None, None]","[-2, -4, 48]","['0', '0', '1', '2', '3']","['up', 'up', 'right']","[5238, 5849, 6549]","{'click': {'state': {'target': ['12', '11', '4', '3'], 'time': [1522, 2221, 3317, 3948]}, 'edge': {'target': [], 'time': []}}, 'mouseover': {'state': {'target': ['9', '12', '10', '11', '4', '4', '2', '3', '7'], 'time': [1058, 1188, 1966, 1998, 2832, 3150, 3634, 3704, 4302]}, 'edge': {'target': [], 'time': []}}, 'mouseout': {'state': {'target': ['12', '9', '9', '12', '10', '11', '4', '4', '2', '3', '7'], 'time': [441, 612, 1065, 1948, 1982, 2782, 2883, 3583, 3683, 4218, 4506]}, 'edge': {'target': [], 'time': []}}}",10.02,10890.0,,
,mouselab-mdp,246366.0,0.0-3.0-1.0-11.0,,"[3757, 93, 302]",,,2339,[],"[0, 0, 0, 0, 0, 0, 0, 0, 0, 0, 0, 0, 0]","['', 2, 8, -48, -48, -4, 8, 24, 24, -2, 8, -24, 48]",-3.2359844448818867e+18,training,11.0,51.0,"[None, None, None]","[-2, 8, 48]","['0', '0', '9', '10', '12']","['left', 'left', 'down']","[4923, 5523, 6331]","{'click': {'state': {'target': ['7', '8', '12'], 'time': [1950, 2631, 3700]}, 'edge': {'target': [], 'time': []}}, 'mouseover': {'state': {'target': ['7', '7', '6', '8', '9', '12', '12', '10', '11'], 'time': [1537, 1637, 2270, 2422, 3190, 3439, 3522, 3957, 4024]}, 'edge': {'target': [], 'time': []}}, 'mouseout': {'state': {'target': ['5', '0', '7', '7', '6', '8', '9', '12', '12', '10'], 'time': [768, 952, 1571, 2221, 2321, 3073, 3239, 3457, 3924, 4007]}, 'edge': {'target': [], 'time': []}}}",9.17,9810.0,,
,mouselab-mdp,256327.0,0.0-3.0-1.0-12.0,,"[3123, 21, 196]",,,2339,[],"[0, 0, 0, 0, 0, 0, 0, 0, 0, 0, 0, 0, 0]","['', 2, -8, 48, -48, -2, 8, -48, 24, 2, 8, -24, -48]",-5.298439851260358e+18,training,12.0,39.0,"[None, None, None]","[2, -8, 48]","['0', '0', '1', '2', '3']","['up', 'up', 'right']","[4118, 4658, 5370]","{'click': {'state': {'target': ['8', '7', '3'], 'time': [1655, 2343, 2970]}, 'edge': {'target': [], 'time': []}}, 'mouseover': {'state': {'target': ['8', '6', '7', '3', '2', '4', '1'], 'time': [1399, 2101, 2134, 2752, 3184, 3286, 3536]}, 'edge': {'target': [], 'time': []}}, 'mouseout': {'state': {'target': ['11', '0', '8', '6', '7', '3', '2', '4', '1', '1'], 'time': [580, 1316, 2083, 2116, 2717, 3134, 3251, 3503, 6205, 6555]}, 'edge': {'target': [], 'time': []}}}",9.00,9885.0,,
,mouselab-mdp,266979.0,0.0-3.0-1.0-13.0,,"[4002, 51, 91]",,,2339,[],"[0, 0, 0, 0, 0, 0, 0, 0, 0, 0, 0, 0, 0]","['', -4, -8, 48, -48, -2, -8, 48, 24, -2, 8, 24, -24]",6.221411054408101e+18,training,13.0,32.0,"[None, None, None]","[-4, -8, 48]","['0', '0', '1', '2', '3']","['up', 'up', 'right']","[4981, 5537, 6144]","{'click': {'state': {'target': ['12', '11', '4', '3'], 'time': [1721, 2402, 3134, 4055]}, 'edge': {'target': [], 'time': []}}, 'mouseover': {'state': {'target': ['12', '10', '11', '4', '2', '3', '3'], 'time': [1547, 2177, 2229, 2846, 3531, 3564, 3847]}, 'edge': {'target': [], 'time': []}}, 'mouseout': {'state': {'target': ['0', '12', '10', '11', '4', '2', '3', '3', '3', '7'], 'time': [1327, 2163, 2212, 2813, 3497, 3547, 3580, 7351, 7603, 8053]}, 'edge': {'target': [], 'time': []}}}",9.99,10585.0,,
,mouselab-mdp,277329.0,0.0-3.0-1.0-14.0,,"[5990, 143, 155]",,,2339,[],"[0, 0, 0, 0, 0, 0, 0, 0, 0, 0, 0, 0, 0]","['', 2, 4, -24, 24, 4, -8, -48, 48, 2, 4, -48, -24]",-6.74953611421507e+18,training,14.0,38.0,"[None, None, None]","[4, -8, 48]","['0', '0', '5', '6', '8']","['right', 'right', 'down']","[6842, 7482, 8130]","{'click': {'state': {'target': ['3', '4', '7', '11', '12', '8'], 'time': [1752, 2380, 3294, 4010, 4861, 5804]}, 'edge': {'target': [], 'time': []}}, 'mouseover': {'state': {'target': ['3', '2', '4', '1', '7', '1', '11', '12', '8', '8'], 'time': [1562, 2149, 2197, 2782, 3116, 3702, 3817, 4668, 5352, 5652]}, 'edge': {'target': [], 'time': []}}, 'mouseout': {'state': {'target': ['6', '5', '0', '3', '2', '4', '1', '7', '1', '11', '12', '8', '8'], 'time': [454, 494, 1246, 2131, 2164, 2766, 2798, 3650, 3718, 4335, 5252, 5402, 9012]}, 'edge': {'target': [], 'time': []}}}",9.85,10274.0,,
,mouselab-mdp,286905.0,0.0-3.0-1.0-15.0,,"[2250, 39, 90]",,,2339,[],"[0, 0, 0, 0, 0, 0, 0, 0, 0, 0, 0, 0, 0]","['', -2, 8, 24, 48, -2, -8, 48, 48, 2, 4, 24, 48]",1.0137673368414092e+18,training,15.0,52.0,"[None, None, None]","[-2, 8, 48]","['0', '0', '1', '2', '4']","['up', 'up', 'left']","[3326, 3860, 4446]","{'click': {'state': {'target': ['3', '4'], 'time': [1698, 2224]}, 'edge': {'target': [], 'time': []}}, 'mouseover': {'state': {'target': ['3', '2', '4'], 'time': [1432, 1982, 2067]}, 'edge': {'target': [], 'time': []}}, 'mouseout': {'state': {'target': ['9', '3', '2', '4'], 'time': [647, 1932, 2017, 2666]}, 'edge': {'target': [], 'time': []}}}",9.08,9504.0,,
,mouselab-mdp,298383.0,0.0-3.0-1.0-16.0,,"[2512, 816, 287]",,,2339,[],"[0, 0, 0, 0, 0, 0, 0, 0, 0, 0, 0, 0, 0]","['', -4, 8, 48, -24, -2, 8, -24, -48, 4, 8, -24, 48]",-3.254006420049747e+18,training,16.0,51.0,"[None, None, None]","[-4, 8, 48]","['0', '0', '1', '2', '3']","['up', 'up', 'right']","[3205, 4519, 5307]","{'click': {'state': {'target': ['3'], 'time': [1551]}, 'edge': {'target': [], 'time': []}}, 'mouseover': {'state': {'target': ['3'], 'time': [1169]}, 'edge': {'target': [], 'time': []}}, 'mouseout': {'state': {'target': ['0', '3'], 'time': [1080, 2015]}, 'edge': {'target': [], 'time': []}}}",10.70,11318.0,,
,mouselab-mdp,309683.0,0.0-3.0-1.0-17.0,,"[3893, 673, 307]",,,2339,[],"[0, 0, 0, 0, 0, 0, 0, 0, 0, 0, 0, 0, 0]","['', 2, -4, -24, -48, 4, -8, 48, -48, 2, -8, 48, -48]",2.735284467270542e+18,training,17.0,41.0,"[None, None, None]","[4, -8, 48]","['0', '0', '5', '6', '7']","['right', 'right', 'up']","[4890, 6064, 6868]","{'click': {'state': {'target': ['4', '3', '7'], 'time': [1917, 2723, 3644]}, 'edge': {'target': [], 'time': []}}, 'mouseover': {'state': {'target': ['1', '2', '4', '3', '5', '6', '7', '6'], 'time': [1450, 1634, 1716, 2591, 3136, 3253, 3352, 3953]}, 'edge': {'target': [], 'time': []}}, 'mouseout': {'state': {'target': ['0', '0', '0', '1', '2', '4', '3', '5', '6', '7'], 'time': [497, 665, 1401, 1516, 1683, 2285, 3036, 3219, 3320, 3819]}, 'edge': {'target': [], 'time': []}}}",10.00,11155.0,,
,mouselab-mdp,319347.0,0.0-3.0-1.0-18.0,,"[2569, 204, 283]",,,2339,[],"[0, 0, 0, 0, 0, 0, 0, 0, 0, 0, 0, 0, 0]","['', -2, 4, 48, -48, 4, -8, 48, 24, -2, -8, 24, 48]",-4.5078917317226716e+18,training,18.0,36.0,"[None, None, None]","[-2, -8, 48]","['0', '0', '9', '10', '12']","['left', 'left', 'down']","[3499, 4198, 4979]","{'click': {'state': {'target': ['11', '12'], 'time': [1576, 2410]}, 'edge': {'target': [], 'time': []}}, 'mouseover': {'state': {'target': ['9', '11', '10', '12', '12'], 'time': [1290, 1390, 1973, 1994, 2311]}, 'edge': {'target': [], 'time': []}}, 'mouseout': {'state': {'target': ['6', '5', '0', '9', '11', '10', '12', '12'], 'time': [555, 621, 1272, 1325, 1941, 1992, 2007, 6346]}, 'edge': {'target': [], 'time': []}}}",8.93,9493.0,,
,mouselab-mdp,330232.0,0.0-3.0-1.0-19.0,,"[2596, 617, 266]",,,2339,[],"[0, 0, 0, 0, 0, 0, 0, 0, 0, 0, 0, 0, 0]","['', 2, -4, 48, -24, -2, 4, 48, -48, 2, 8, -48, 24]",-3.024950732778212e+17,training,19.0,48.0,"[None, None, None]","[-2, 4, 48]","['0', '0', '5', '6', '7']","['right', 'right', 'up']","[3626, 4749, 5518]","{'click': {'state': {'target': ['8', '7'], 'time': [1761, 2404]}, 'edge': {'target': [], 'time': []}}, 'mouseover': {'state': {'target': ['8', '6', '7'], 'time': [1509, 2161, 2211]}, 'edge': {'target': [], 'time': []}}, 'mouseout': {'state': {'target': ['0', '8', '6', '7', '5'], 'time': [1376, 2143, 2177, 2727, 10456]}, 'edge': {'target': [], 'time': []}}}",10.03,10834.0,,
,mouselab-mdp,339506.0,0.0-3.0-2.0-0.0,,"[1864, 111, 182]",,,2339,[],"[0, 0, 0, 0, 0, 0, 0, 0, 0, 0, 0, 0, 0]","['', -4, -4, 48, -48, -2, -8, 48, 48, -4, -4, -48, 48]",7.16068933233386e+18,test,20.0,37.0,"[None, None, None]","[-2, -8, 48]","['0', '0', '5', '6', '7']","['right', 'right', 'up']","[2565, 3168, 3861]","{'click': {'state': {'target': ['7'], 'time': [1439]}, 'edge': {'target': [], 'time': []}}, 'mouseover': {'state': {'target': ['7'], 'time': [1163]}, 'edge': {'target': [], 'time': []}}, 'mouseout': {'state': {'target': ['0'], 'time': [1113]}, 'edge': {'target': [], 'time': []}}}",8.70,9203.0,,
,mouselab-mdp,350838.0,0.0-3.0-2.0-1.0,,"[4251, 181, 304]",,,2339,[],"[0, 0, 0, 0, 0, 0, 0, 0, 0, 0, 0, 0, 0]","['', 4, -8, -48, -24, -2, 8, 24, 48, -2, -8, -48, -24]",6.562770673904911e+18,test,21.0,50.0,"[None, None, None]","[-2, 8, 48]","['0', '0', '5', '6', '8']","['right', 'right', 'down']","[5522, 6210, 7018]","{'click': {'state': {'target': ['11', '12', '7', '8'], 'time': [2000, 2740, 3534, 4312]}, 'edge': {'target': [], 'time': []}}, 'mouseover': {'state': {'target': ['11', '10', '12', '5', '7', '6', '8'], 'time': [1853, 2438, 2487, 3189, 3288, 3993, 4024]}, 'edge': {'target': [], 'time': []}}, 'mouseout': {'state': {'target': ['7', '0', '11', '10', '12', '5', '7', '6'], 'time': [684, 1319, 2421, 2471, 3138, 3206, 3991, 4006]}, 'edge': {'target': [], 'time': []}}}",10.27,11257.0,,
,mouselab-mdp,368321.0,0.0-3.0-2.0-2.0,,"[13823, 124, 238]",,,2339,[],"[0, 0, 0, 0, 0, 0, 0, 0, 0, 0, 0, 0, 0]","['', -2, -8, 24, 24, -2, -8, 24, -24, 4, -4, 24, -48]",7.419235085028046e+18,test,22.0,14.0,"[None, None, None]","[4, -4, 24]","['0', '0', '9', '10', '11']","['left', 'left', 'up']","[14677, 15308, 16037]","{'click': {'state': {'target': ['7', '8', '3', '4', '11', '12', '9', '10', '6', '2'], 'time': [1602, 2335, 3033, 3754, 4907, 5626, 10439, 10966, 12198, 13328]}, 'edge': {'target': [], 'time': []}}, 'mouseover': {'state': {'target': ['7', '6', '8', '3', '2', '2', '4', '11', '11', '10', '12', '9', '10', '0', '5', '6', '5', '1', '2', '1'], 'time': [1328, 2031, 2071, 2814, 3250, 3465, 3532, 4300, 4634, 5286, 5427, 9940, 10723, 11593, 11726, 11994, 12578, 12962, 13094, 13680]}, 'edge': {'target': [], 'time': []}}, 'mouseout': {'state': {'target': ['8', '0', '7', '6', '8', '3', '2', '2', '4', '11', '11', '10', '12', '9', '10', '9', '0', '5', '6', '5', '1', '2', '1'], 'time': [444, 560, 2014, 2047, 2730, 3198, 3264, 3482, 4100, 4366, 5202, 5425, 6068, 10590, 11509, 11576, 11627, 11860, 12528, 12911, 13046, 13597, 13962]}, 'edge': {'target': [], 'time': []}}}",16.54,17400.0,,
,mouselab-mdp,379974.0,0.0-3.0-2.0-3.0,,"[2621, 95, 91]",,,2339,[],"[0, 0, 0, 0, 0, 0, 0, 0, 0, 0, 0, 0, 0]","['', -4, 8, -48, 48, 2, -4, 48, -48, 2, -8, 24, -48]",5.258592950055133e+18,test,23.0,50.0,"[None, None, None]","[-4, 8, 48]","['0', '0', '1', '2', '4']","['up', 'up', 'left']","[4256, 4847, 5447]","{'click': {'state': {'target': ['3', '4'], 'time': [2490, 3147]}, 'edge': {'target': [], 'time': []}}, 'mouseover': {'state': {'target': ['2', '3', '2', '4'], 'time': [2081, 2198, 2882, 3016]}, 'edge': {'target': [], 'time': []}}, 'mouseout': {'state': {'target': ['5', '5', '2', '3', '2', '4'], 'time': [645, 1097, 2182, 2664, 2914, 3367]}, 'edge': {'target': [], 'time': []}}}",10.63,11563.0,,
,mouselab-mdp,391805.0,0.0-3.0-2.0-4.0,,"[2651, 4, 97]",,,2339,[],"[0, 0, 0, 0, 0, 0, 0, 0, 0, 0, 0, 0, 0]","['', -2, -4, 48, -48, 4, 8, 48, 24, 2, -4, -48, -24]",-6.802951220459882e+18,test,24.0,40.0,"[None, None, None]","[-2, -4, 48]","['0', '0', '1', '2', '3']","['up', 'up', 'right']","[3196, 3704, 4316]","{'click': {'state': {'target': ['4', '3'], 'time': [1515, 2131]}, 'edge': {'target': [], 'time': []}}, 'mouseover': {'state': {'target': ['1', '4', '3'], 'time': [1046, 1335, 1928]}, 'edge': {'target': [], 'time': []}}, 'mouseout': {'state': {'target': ['0', '1', '4', '3'], 'time': [946, 1229, 1761, 2314]}, 'edge': {'target': [], 'time': []}}}",9.55,11760.0,,
,mouselab-mdp,404754.0,0.0-3.0-2.0-5.0,,"[3490, 71, 232]",,,2339,[],"[0, 0, 0, 0, 0, 0, 0, 0, 0, 0, 0, 0, 0]","['', 4, 4, -48, 24, -2, 4, 48, -24, 4, 4, -48, 48]",3.9111036278787256e+18,test,25.0,47.0,"[None, None, None]","[-2, 4, 48]","['0', '0', '5', '6', '7']","['right', 'right', 'up']","[4232, 4804, 5532]","{'click': {'state': {'target': ['3', '4', '7'], 'time': [1481, 2130, 3139]}, 'edge': {'target': [], 'time': []}}, 'mouseover': {'state': {'target': ['3', '4', '7'], 'time': [1342, 1894, 2961]}, 'edge': {'target': [], 'time': []}}, 'mouseout': {'state': {'target': ['0', '3', '4', '7', '7', '8'], 'time': [1009, 1659, 2420, 7100, 9589, 12343]}, 'edge': {'target': [], 'time': []}}}",8.74,12890.0,,
,mouselab-mdp,417056.0,0.0-3.0-2.0-6.0,,"[8287, 308, 221]",,,2339,[],"[0, 0, 0, 0, 0, 0, 0, 0, 0, 0, 0, 0, 0]","['', -2, 4, 24, 24, 4, 8, -48, 24, -2, 8, -48, -24]",-9.08425462156937e+18,test,26.0,19.0,"[None, None, None]","[-2, 4, 24]","['0', '0', '1', '2', '4']","['up', 'up', 'left']","[9275, 10080, 10795]","{'click': {'state': {'target': ['3', '4', '11', '12', '7', '8', '2'], 'time': [2454, 3151, 3793, 4433, 5370, 5895, 7920]}, 'edge': {'target': [], 'time': []}}, 'mouseover': {'state': {'target': ['5', '3', '3', '4', '11', '10', '12', '6', '7', '6', '8', '5', '2'], 'time': [1609, 2026, 2293, 2944, 3586, 4080, 4163, 5063, 5097, 5531, 5699, 7282, 7644]}, 'edge': {'target': [], 'time': []}}, 'mouseout': {'state': {'target': ['0', '5', '3', '3', '4', '11', '10', '12', '6', '7', '6', '8', '5', '2'], 'time': [1558, 1625, 2061, 2872, 3494, 4012, 4147, 4765, 5080, 5514, 5631, 6525, 7317, 8152]}, 'edge': {'target': [], 'time': []}}}",11.29,12224.0,,
,mouselab-mdp,427864.0,0.0-3.0-2.0-7.0,,"[1940, 101, 211]",,,2339,[],"[0, 0, 0, 0, 0, 0, 0, 0, 0, 0, 0, 0, 0]","['', 2, 8, 48, 48, -4, -8, 24, 48, 4, 4, 48, 24]",4.610111718856282e+17,test,27.0,57.0,"[None, None, None]","[2, 8, 48]","['0', '0', '1', '2', '3']","['up', 'up', 'right']","[3114, 3707, 4419]","{'click': {'state': {'target': ['3'], 'time': [1735]}, 'edge': {'target': [], 'time': []}}, 'mouseover': {'state': {'target': ['3', '2', '4'], 'time': [1585, 1870, 2020]}, 'edge': {'target': [], 'time': []}}, 'mouseout': {'state': {'target': ['5', '3', '2', '4'], 'time': [769, 1854, 1905, 2487]}, 'edge': {'target': [], 'time': []}}}",10.17,10742.0,,
,mouselab-mdp,439055.0,0.0-3.0-2.0-8.0,,"[3312, 43, 283]",,,2339,[],"[0, 0, 0, 0, 0, 0, 0, 0, 0, 0, 0, 0, 0]","['', -2, 4, 24, -24, 4, -8, 24, -24, 4, -4, 48, -24]",6.242434190208863e+17,test,28.0,45.0,"[None, None, None]","[4, -4, 48]","['0', '0', '9', '10', '11']","['left', 'left', 'up']","[4276, 4825, 5621]","{'click': {'state': {'target': ['3', '4', '11'], 'time': [1567, 2449, 3013]}, 'edge': {'target': [], 'time': []}}, 'mouseover': {'state': {'target': ['3', '2', '4', '4', '11', '10'], 'time': [1358, 1842, 1908, 2276, 2809, 3460]}, 'edge': {'target': [], 'time': []}}, 'mouseout': {'state': {'target': ['2', '1', '0', '3', '2', '4', '4', '11', '10', '9', '0'], 'time': [506, 590, 806, 1809, 1875, 2010, 2659, 3259, 3527, 7016, 10102]}, 'edge': {'target': [], 'time': []}}}",9.97,11124.0,,
,mouselab-mdp,449657.0,0.0-3.0-2.0-9.0,,"[1750, 10, 167]",,,2339,[],"[0, 0, 0, 0, 0, 0, 0, 0, 0, 0, 0, 0, 0]","['', 4, -4, 24, -24, -2, -4, -24, -24, 2, -4, 48, 24]",1.598574912455298e+18,test,29.0,45.0,"[None, None, None]","[2, -4, 48]","['0', '0', '9', '10', '11']","['left', 'left', 'up']","[2505, 3012, 3688]","{'click': {'state': {'target': ['11'], 'time': [1348]}, 'edge': {'target': [], 'time': []}}, 'mouseover': {'state': {'target': ['11', '11', '10', '9'], 'time': [1132, 1231, 1831, 1900]}, 'edge': {'target': [], 'time': []}}, 'mouseout': {'state': {'target': ['0', '11', '11', '10', '9'], 'time': [547, 1165, 1766, 1866, 4654]}, 'edge': {'target': [], 'time': []}}}",9.76,10551.0,,
,mouselab-mdp,459630.0,0.0-3.0-2.0-10.0,,"[1890, 19, 100]",,,2339,[],"[0, 0, 0, 0, 0, 0, 0, 0, 0, 0, 0, 0, 0]","['', 2, -4, 48, -48, 2, -8, 24, -24, -4, -8, 24, -24]",-8.977351099475699e+18,test,30.0,45.0,"[None, None, None]","[2, -4, 48]","['0', '0', '1', '2', '3']","['up', 'up', 'right']","[2708, 3226, 3838]","{'click': {'state': {'target': ['3'], 'time': [1554]}, 'edge': {'target': [], 'time': []}}, 'mouseover': {'state': {'target': ['3', '2'], 'time': [1348, 1765]}, 'edge': {'target': [], 'time': []}}, 'mouseout': {'state': {'target': ['1', '0', '3', '2', '2'], 'time': [481, 1149, 1715, 1865, 6572]}, 'edge': {'target': [], 'time': []}}}",8.82,9909.0,,
,mouselab-mdp,470723.0,0.0-3.0-2.0-11.0,,"[1608, 177, 211]",,,2339,[],"[0, 0, 0, 0, 0, 0, 0, 0, 0, 0, 0, 0, 0]","['', -2, -8, 48, 24, 4, 4, 48, 24, 2, -8, -24, -48]",-6.480731593057875e+18,test,31.0,37.0,"[None, None, None]","[-2, -8, 48]","['0', '0', '1', '2', '3']","['up', 'up', 'right']","[2645, 3315, 4031]","{'click': {'state': {'target': ['3'], 'time': [1550]}, 'edge': {'target': [], 'time': []}}, 'mouseover': {'state': {'target': ['3'], 'time': [1348]}, 'edge': {'target': [], 'time': []}}, 'mouseout': {'state': {'target': ['2', '1', '0', '3', '3'], 'time': [480, 682, 1166, 7607, 10846]}, 'edge': {'target': [], 'time': []}}}",10.04,11039.0,,
,mouselab-mdp,481322.0,0.0-3.0-2.0-12.0,,"[3913, 53, 151]",,,2339,[],"[0, 0, 0, 0, 0, 0, 0, 0, 0, 0, 0, 0, 0]","['', -4, -8, -48, -48, 4, 4, 24, 48, -4, -4, 24, 48]",7.07260772544739e+18,test,32.0,36.0,"[None, None, None]","[-4, -4, 48]","['0', '0', '9', '10', '12']","['left', 'left', 'down']","[4799, 5343, 6007]","{'click': {'state': {'target': ['3', '4', '11', '12'], 'time': [1435, 2009, 2751, 3474]}, 'edge': {'target': [], 'time': []}}, 'mouseover': {'state': {'target': ['3', '2', '4', '11', '10', '12'], 'time': [1317, 1651, 1816, 2518, 3036, 3235]}, 'edge': {'target': [], 'time': []}}, 'mouseout': {'state': {'target': ['3', '2', '4', '11', '10', '12'], 'time': [1616, 1784, 2201, 2986, 3136, 3935]}, 'edge': {'target': [], 'time': []}}}",8.89,10540.0,,
,mouselab-mdp,491594.0,0.0-3.0-2.0-13.0,,"[3070, 80, 194]",,,2339,[],"[0, 0, 0, 0, 0, 0, 0, 0, 0, 0, 0, 0, 0]","['', 2, 4, -48, 24, -4, 8, 24, -48, 4, -8, 48, 24]",8.563081952235477e+18,test,33.0,41.0,"[None, None, None]","[4, -8, 48]","['0', '0', '9', '10', '11']","['left', 'left', 'up']","[3686, 4275, 4969]","{'click': {'state': {'target': ['3', '4', '11'], 'time': [1467, 1961, 2463]}, 'edge': {'target': [], 'time': []}}, 'mouseover': {'state': {'target': ['3', '2', '4', '11', '10', '12'], 'time': [1303, 1603, 1754, 2172, 2639, 2805]}, 'edge': {'target': [], 'time': []}}, 'mouseout': {'state': {'target': ['0', '3', '2', '4', '11', '10', '12', '9', '0'], 'time': [1037, 1588, 1639, 2137, 2621, 2722, 3021, 5859, 6044]}, 'edge': {'target': [], 'time': []}}}",8.62,10218.0,,
,mouselab-mdp,501377.0,0.0-3.0-2.0-14.0,,"[3722, 98, 181]",,,2339,[],"[0, 0, 0, 0, 0, 0, 0, 0, 0, 0, 0, 0, 0]","['', -4, -8, -48, 24, 2, -8, -48, 48, 2, -8, -24, 24]",-3.537338363954668e+18,test,34.0,38.0,"[None, None, None]","[2, -8, 48]","['0', '0', '5', '6', '8']","['right', 'right', 'down']","[4419, 5015, 5700]","{'click': {'state': {'target': ['12', '11', '7', '8'], 'time': [1354, 1834, 2721, 3340]}, 'edge': {'target': [], 'time': []}}, 'mouseover': {'state': {'target': ['9', '12', '10', '11', '1', '7', '6', '8'], 'time': [977, 1076, 1527, 1593, 2261, 2495, 2946, 3062]}, 'edge': {'target': [], 'time': []}}, 'mouseout': {'state': {'target': ['0', '9', '12', '10', '11', '1', '7', '6', '8'], 'time': [508, 993, 1494, 1560, 2195, 2396, 2897, 3013, 6636]}, 'edge': {'target': [], 'time': []}}}",8.70,9710.0,,
,mouselab-mdp,512345.0,0.0-3.0-2.0-15.0,,"[3724, 19, 989]",,,2339,[],"[0, 0, 0, 0, 0, 0, 0, 0, 0, 0, 0, 0, 0]","['', 2, 4, -24, 48, 2, -4, 24, 24, 2, -4, -48, -24]",7.341350411386814e+18,test,35.0,51.0,"[None, None, None]","[2, 4, 48]","['0', '0', '1', '2', '4']","['up', 'up', 'left']","[4709, 5221, 6725]","{'click': {'state': {'target': ['8', '7', '4'], 'time': [1819, 2487, 3508]}, 'edge': {'target': [], 'time': []}}, 'mouseover': {'state': {'target': ['8', '6', '7', '3', '2', '4', '2'], 'time': [1427, 2260, 2311, 2997, 3230, 3295, 3781]}, 'edge': {'target': [], 'time': []}}, 'mouseout': {'state': {'target': ['0', '8', '6', '7', '3', '2', '4', '2', '1'], 'time': [1360, 2247, 2294, 2880, 3012, 3280, 3731, 7724, 7886]}, 'edge': {'target': [], 'time': []}}}",9.98,10897.0,,
,mouselab-mdp,523251.0,0.0-3.0-2.0-16.0,,"[2355, 25, 185]",,,2339,[],"[0, 0, 0, 0, 0, 0, 0, 0, 0, 0, 0, 0, 0]","['', 2, -8, -24, 48, 4, 4, -48, 24, 2, -4, -24, 24]",1.466645676459689e+18,test,36.0,40.0,"[None, None, None]","[2, -8, 48]","['0', '0', '1', '2', '4']","['up', 'up', 'left']","[3428, 3956, 4645]","{'click': {'state': {'target': ['3', '4'], 'time': [1814, 2365]}, 'edge': {'target': [], 'time': []}}, 'mouseover': {'state': {'target': ['3', '2', '4'], 'time': [1518, 1985, 2036]}, 'edge': {'target': [], 'time': []}}, 'mouseout': {'state': {'target': ['0', '3', '2', '4', '0'], 'time': [1353, 1971, 2019, 2686, 5740]}, 'edge': {'target': [], 'time': []}}}",10.07,10847.0,,
,mouselab-mdp,535301.0,0.0-3.0-2.0-17.0,,"[1828, 46, 137]",,,2339,[],"[0, 0, 0, 0, 0, 0, 0, 0, 0, 0, 0, 0, 0]","['', 2, -8, 24, 48, 4, 4, 48, 48, 2, -8, -48, -48]",7.007154183592665e+18,test,37.0,41.0,"[None, None, None]","[2, -8, 48]","['0', '0', '1', '2', '4']","['up', 'up', 'left']","[2807, 3351, 4007]","{'click': {'state': {'target': ['4'], 'time': [1693]}, 'edge': {'target': [], 'time': []}}, 'mouseover': {'state': {'target': ['4'], 'time': [1399]}, 'edge': {'target': [], 'time': []}}, 'mouseout': {'state': {'target': ['0', '4', '9'], 'time': [580, 7491, 7926]}, 'edge': {'target': [], 'time': []}}}",8.98,11996.0,,
,mouselab-mdp,545788.0,0.0-3.0-2.0-18.0,,"[4269, 59, 71]",,,2339,[],"[0, 0, 0, 0, 0, 0, 0, 0, 0, 0, 0, 0, 0]","['', 4, 8, -24, 24, 4, -4, -24, 24, -4, 4, -24, 48]",2.948336531417193e+18,test,38.0,44.0,"[None, None, None]","[-4, 4, 48]","['0', '0', '9', '10', '12']","['left', 'left', 'down']","[5226, 5783, 6362]","{'click': {'state': {'target': ['4', '3', '11', '12'], 'time': [1613, 2490, 3345, 4191]}, 'edge': {'target': [], 'time': []}}, 'mouseover': {'state': {'target': ['1', '4', '3', '3', '1', '11', '10', '12'], 'time': [1281, 1429, 2016, 2332, 2899, 3201, 3700, 3867]}, 'edge': {'target': [], 'time': []}}, 'mouseout': {'state': {'target': ['0', '1', '4', '3', '3', '1', '11', '10', '12', '9', '0'], 'time': [1249, 1298, 1985, 2032, 2698, 2915, 3549, 3767, 4652, 9096, 9542]}, 'edge': {'target': [], 'time': []}}}",8.96,10398.0,,
,mouselab-mdp,557023.0,0.0-3.0-2.0-19.0,,"[4367, 1, 77]",,,2339,[],"[0, 0, 0, 0, 0, 0, 0, 0, 0, 0, 0, 0, 0]","['', -4, -4, -24, 24, -2, 4, 24, 24, 2, -8, 48, 48]",-3.858448030437114e+18,test,39.0,38.0,"[None, None, None]","[2, -8, 48]","['0', '0', '9', '10', '11']","['left', 'left', 'up']","[5195, 5689, 6282]","{'click': {'state': {'target': ['4', '3', '7', '11'], 'time': [1641, 2341, 3118, 4075]}, 'edge': {'target': [], 'time': []}}, 'mouseover': {'state': {'target': ['4', '2', '3', '3', '7', '1', '11', '11', '10'], 'time': [1447, 2065, 2098, 2164, 2932, 3566, 3617, 3884, 4433]}, 'edge': {'target': [], 'time': []}}, 'mouseout': {'state': {'target': ['5', '0', '4', '2', '3', '3', '7', '1', '11', '11', '10'], 'time': [461, 628, 2048, 2082, 2131, 2766, 3502, 3583, 3649, 4284, 4587]}, 'edge': {'target': [], 'time': []}}}",8.83,11151.0,,
,mouselab-mdp,86402.0,0.0-3.0-1.0-0.0,,"[7138, 155, 253]",,,2336,[],"[0, 0, 0, 0, 0, 0, 0, 0, 0, 0, 0, 0, 0]","['', -2, 4, -24, -24, -4, -8, 48, -24, 4, -8, -24, 24]",-5.123434937761383e+16,training,0.0,16.0,"[None, None, None]","[4, -8, 24]","['0', '0', '9', '10', '12']","['left', 'left', 'down']","[8945, 9611, 10360]","{'click': {'state': {'target': ['5', '9', '12', '3'], 'time': [2793, 3578, 4139, 5794]}, 'edge': {'target': [], 'time': []}}, 'mouseover': {'state': {'target': ['5', '9', '12', '0', '3', '0', '10', '0'], 'time': [2489, 3389, 3972, 5189, 5706, 6473, 6972, 7623]}, 'edge': {'target': [], 'time': []}}, 'mouseout': {'state': {'target': ['5', '9', '12', '9', '9', '0', '5', '3', '0', '9', '10', '9', '0'], 'time': [3106, 3822, 4306, 4839, 5172, 5239, 5339, 5989, 6506, 6906, 7139, 7556, 7839]}, 'edge': {'target': [], 'time': []}}}",10.87,11949.0,,
,mouselab-mdp,99034.0,0.0-3.0-1.0-1.0,,"[2837, 108, 64]",,,2336,[],"[0, 0, 0, 0, 0, 0, 0, 0, 0, 0, 0, 0, 0]","['', 4, 8, 24, 48, -4, 8, -48, -48, -2, -8, 24, -48]",-2.5963408475109453e+18,training,1.0,57.0,"[None, None, None]","[4, 8, 48]","['0', '0', '1', '2', '4']","['up', 'up', 'left']","[4320, 4924, 5513]","{'click': {'state': {'target': ['5', '8', '4'], 'time': [2149, 2738, 3521]}, 'edge': {'target': [], 'time': []}}, 'mouseover': {'state': {'target': ['0', '5', '8', '9', '4', '9', '9'], 'time': [1698, 1931, 2515, 3182, 3365, 3815, 4081]}, 'edge': {'target': [], 'time': []}}, 'mouseout': {'state': {'target': ['0', '0', '0', '0', '5', '8', '9', '4', '9', '9', '5', '4'], 'time': [531, 1182, 1398, 1798, 2332, 2898, 3199, 3665, 3848, 4098, 4965, 12215]}, 'edge': {'target': [], 'time': []}}}",9.48,12608.0,,
,mouselab-mdp,109989.0,0.0-3.0-1.0-2.0,,"[2951, 79, 61]",,,2336,[],"[0, 0, 0, 0, 0, 0, 0, 0, 0, 0, 0, 0, 0]","['', -2, 4, -48, -24, -2, 4, 48, -24, 4, -4, 24, -48]",6.4750170697895e+18,training,2.0,47.0,"[None, None, None]","[-2, 4, 48]","['0', '0', '5', '6', '7']","['right', 'right', 'up']","[3869, 4481, 5046]","{'click': {'state': {'target': ['4', '12', '7'], 'time': [1889, 2447, 3206]}, 'edge': {'target': [], 'time': []}}, 'mouseover': {'state': {'target': ['0', '0', '1', '4', '12', '7'], 'time': [1101, 1467, 1601, 1784, 2267, 3167]}, 'edge': {'target': [], 'time': []}}, 'mouseout': {'state': {'target': ['0', '0', '0', '1', '4', '12', '7', '6'], 'time': [834, 1217, 1517, 1650, 2051, 2734, 3450, 5850]}, 'edge': {'target': [], 'time': []}}}",9.92,10932.0,,
,mouselab-mdp,119652.0,0.0-3.0-1.0-3.0,,"[1425, 74, 25]",,,2336,[],"[0, 0, 0, 0, 0, 0, 0, 0, 0, 0, 0, 0, 0]","['', -4, 4, 48, 48, -4, -4, 24, 48, -4, -8, -48, -24]",1.0106246541947454e+17,training,3.0,47.0,"[None, None, None]","[-4, 4, 48]","['0', '0', '1', '2', '4']","['up', 'up', 'left']","[2290, 2866, 3383]","{'click': {'state': {'target': ['4'], 'time': [1671]}, 'edge': {'target': [], 'time': []}}, 'mouseover': {'state': {'target': ['0', '1', '4', '9', '9'], 'time': [1324, 1407, 1540, 1924, 2257]}, 'edge': {'target': [], 'time': []}}, 'mouseout': {'state': {'target': ['0', '0', '1', '4', '9', '9'], 'time': [1107, 1357, 1474, 1840, 1990, 2624]}, 'edge': {'target': [], 'time': []}}}",8.87,9635.0,,
,mouselab-mdp,129387.0,0.0-3.0-1.0-4.0,,"[1200, 57, 34]",,,2336,[],"[0, 0, 0, 0, 0, 0, 0, 0, 0, 0, 0, 0, 0]","['', -2, 8, -24, 48, 2, 4, -48, 48, -2, 4, -24, -48]",-6.593666887814382e+18,training,4.0,53.0,"[None, None, None]","[-2, 8, 48]","['0', '0', '1', '2', '4']","['up', 'up', 'left']","[2073, 2637, 3181]","{'click': {'state': {'target': ['4'], 'time': [1586]}, 'edge': {'target': [], 'time': []}}, 'mouseover': {'state': {'target': ['0', '4'], 'time': [1046, 1479]}, 'edge': {'target': [], 'time': []}}, 'mouseout': {'state': {'target': ['0', '0', '4'], 'time': [796, 1079, 1762]}, 'edge': {'target': [], 'time': []}}}",8.87,9709.0,,
,mouselab-mdp,139731.0,0.0-3.0-1.0-5.0,,"[3176, 129, 107]",,,2336,[],"[0, 0, 0, 0, 0, 0, 0, 0, 0, 0, 0, 0, 0]","['', 2, 4, 24, 24, -4, -8, 24, 48, -4, -4, -24, -24]",7.794057713406285e+17,training,5.0,33.0,"[None, None, None]","[-4, -8, 48]","['0', '0', '5', '6', '8']","['right', 'right', 'down']","[4690, 5310, 5905]","{'click': {'state': {'target': ['12', '4', '8'], 'time': [2067, 3189, 4028]}, 'edge': {'target': [], 'time': []}}, 'mouseover': {'state': {'target': ['0', '12', '0', '1', '4', '4', '1', '5', '6', '8'], 'time': [1764, 1980, 2547, 2597, 2680, 2997, 3397, 3748, 3797, 3914]}, 'edge': {'target': [], 'time': []}}, 'mouseout': {'state': {'target': ['0', '0', '12', '0', '1', '4', '4', '1', '5', '6', '8', '8'], 'time': [780, 1780, 2197, 2564, 2631, 2764, 3364, 3497, 3780, 3814, 4280, 6847]}, 'edge': {'target': [], 'time': []}}}",9.52,10321.0,,
,mouselab-mdp,149971.0,0.0-3.0-1.0-6.0,,"[1807, 130, 31]",,,2336,[],"[0, 0, 0, 0, 0, 0, 0, 0, 0, 0, 0, 0, 0]","['', 2, 4, 24, 48, 2, -4, -24, -48, -2, -8, 48, -48]",-7.082365920985033e+18,training,6.0,52.0,"[None, None, None]","[2, 4, 48]","['0', '0', '1', '2', '4']","['up', 'up', 'left']","[2639, 3270, 3822]","{'click': {'state': {'target': ['12', '4'], 'time': [1301, 2051]}, 'edge': {'target': [], 'time': []}}, 'mouseover': {'state': {'target': ['12', '4', '1'], 'time': [1221, 1938, 2305]}, 'edge': {'target': [], 'time': []}}, 'mouseout': {'state': {'target': ['0', '12', '4', '1', '5', '7', '7', '5'], 'time': [1055, 1571, 2205, 2338, 3155, 3950, 5105, 9205]}, 'edge': {'target': [], 'time': []}}}",9.83,10219.0,,
,mouselab-mdp,161936.0,0.0-3.0-1.0-7.0,,"[2732, 154, 206]",,,2336,[],"[0, 0, 0, 0, 0, 0, 0, 0, 0, 0, 0, 0, 0]","['', -2, 8, -24, 48, 2, -4, 48, 24, -2, 8, -24, -24]",7.530597343457169e+17,training,7.0,51.0,"[None, None, None]","[-2, 8, 48]","['0', '0', '1', '2', '4']","['up', 'up', 'left']","[4067, 4719, 5421]","{'click': {'state': {'target': ['12', '8', '4'], 'time': [1952, 2650, 3463]}, 'edge': {'target': [], 'time': []}}, 'mouseover': {'state': {'target': ['0', '12', '8', '6', '2', '4'], 'time': [1614, 1914, 2430, 3130, 3265, 3380]}, 'edge': {'target': [], 'time': []}}, 'mouseout': {'state': {'target': ['5', '0', '0', '12', '8', '6', '2', '4', '5'], 'time': [963, 1419, 1681, 2264, 2847, 3147, 3314, 3664, 4480]}, 'edge': {'target': [], 'time': []}}}",9.34,11943.0,,
,mouselab-mdp,172793.0,0.0-3.0-1.0-8.0,,"[4245, 100, 101]",,,2336,[],"[0, 0, 0, 0, 0, 0, 0, 0, 0, 0, 0, 0, 0]","['', 2, -4, 48, -48, 2, -8, 24, -24, -4, -8, 24, -24]",-8.977351099475699e+18,training,8.0,14.0,"[None, None, None]","[2, -8, 24]","['0', '0', '5', '6', '7']","['right', 'right', 'up']","[5264, 5884, 6518]","{'click': {'state': {'target': ['12', '4', '8', '11'], 'time': [2084, 3082, 3747, 4710]}, 'edge': {'target': [], 'time': []}}, 'mouseover': {'state': {'target': ['0', '0', '12', '2', '4', '1', '5', '8', '6', '1', '11', '9', '0', '5', '6'], 'time': [1233, 1433, 1966, 2616, 2850, 3283, 3383, 3600, 4216, 4383, 4483, 4900, 5049, 5150, 5216]}, 'edge': {'target': [], 'time': []}}, 'mouseout': {'state': {'target': ['0', '0', '0', '12', '2', '4', '1', '5', '8', '6', '1', '11', '9', '0', '5', '6', '8', '5', '5', '2', '5'], 'time': [900, 1251, 1466, 2216, 2666, 3233, 3333, 3466, 3966, 4266, 4416, 4833, 4916, 5133, 5200, 5233, 8766, 9050, 9283, 9649, 10066]}, 'edge': {'target': [], 'time': []}}}",10.02,10835.0,,
,mouselab-mdp,182227.0,0.0-3.0-1.0-9.0,,"[1223, 30, 48]",,,2336,[],"[0, 0, 0, 0, 0, 0, 0, 0, 0, 0, 0, 0, 0]","['', -2, -4, 48, 24, -2, -4, -48, -24, -4, -4, 24, 48]",-3.1773427201591757e+18,training,9.0,39.0,"[None, None, None]","[-4, -4, 48]","['0', '0', '9', '10', '12']","['left', 'left', 'down']","[1846, 2371, 2939]","{'click': {'state': {'target': ['12'], 'time': [1274]}, 'edge': {'target': [], 'time': []}}, 'mouseover': {'state': {'target': ['0', '12', '12'], 'time': [756, 1156, 1240]}, 'edge': {'target': [], 'time': []}}, 'mouseout': {'state': {'target': ['0', '0', '12', '12'], 'time': [573, 790, 1173, 1623]}, 'edge': {'target': [], 'time': []}}}",8.62,9410.0,,
,mouselab-mdp,191617.0,0.0-3.0-1.0-10.0,,"[1764, 33, 485]",,,2336,[],"[0, 0, 0, 0, 0, 0, 0, 0, 0, 0, 0, 0, 0]","['', -2, 4, 24, -24, 4, -8, 24, -24, 4, -4, 48, -24]",6.242434190208863e+17,training,10.0,46.0,"[None, None, None]","[4, -4, 48]","['0', '0', '9', '10', '11']","['left', 'left', 'up']","[2476, 3009, 4027]","{'click': {'state': {'target': ['12', '11'], 'time': [1204, 1927]}, 'edge': {'target': [], 'time': []}}, 'mouseover': {'state': {'target': ['12', '10', '11'], 'time': [1124, 1724, 1774]}, 'edge': {'target': [], 'time': []}}, 'mouseout': {'state': {'target': ['0', '12', '10', '11', '0'], 'time': [907, 1491, 1741, 2091, 2807]}, 'edge': {'target': [], 'time': []}}}",8.71,9368.0,,
,mouselab-mdp,201733.0,0.0-3.0-1.0-11.0,,"[3734, 86, 33]",,,2336,[],"[0, 0, 0, 0, 0, 0, 0, 0, 0, 0, 0, 0, 0]","['', 4, 4, 48, 24, 4, -4, 24, -48, -2, -8, -24, -48]",5.662483218820924e+17,training,11.0,51.0,"[None, None, None]","[4, 4, 48]","['0', '0', '1', '2', '3']","['up', 'up', 'right']","[4409, 4987, 5551]","{'click': {'state': {'target': ['12', '7', '8', '4', '3'], 'time': [1122, 1812, 2350, 3089, 3850]}, 'edge': {'target': [], 'time': []}}, 'mouseover': {'state': {'target': ['12', '6', '7', '6', '8', '0', '1', '4', '1', '3'], 'time': [1066, 1666, 1716, 2050, 2166, 2799, 2849, 3000, 3600, 3700]}, 'edge': {'target': [], 'time': []}}, 'mouseout': {'state': {'target': ['0', '12', '6', '7', '6', '8', '0', '1', '4', '1', '3', '5'], 'time': [900, 1316, 1683, 2016, 2116, 2566, 2816, 2883, 3250, 3633, 4016, 6149]}, 'edge': {'target': [], 'time': []}}}",9.68,10093.0,,
,mouselab-mdp,210929.0,0.0-3.0-1.0-12.0,,"[2482, 31, 79]",,,2336,[],"[0, 0, 0, 0, 0, 0, 0, 0, 0, 0, 0, 0, 0]","['', -4, 4, -24, 48, -4, -8, -24, 48, -4, 8, -24, -48]",-5.433328656123216e+18,training,12.0,33.0,"[None, None, None]","[-4, -8, 48]","['0', '0', '5', '6', '8']","['right', 'right', 'down']","[3234, 3783, 4365]","{'click': {'state': {'target': ['12', '7', '8'], 'time': [1221, 2159, 2660]}, 'edge': {'target': [], 'time': []}}, 'mouseover': {'state': {'target': ['0', '12', '5', '7', '6', '8'], 'time': [901, 1134, 1684, 2051, 2451, 2568]}, 'edge': {'target': [], 'time': []}}, 'mouseout': {'state': {'target': ['0', '0', '12', '5', '7', '6', '8', '8', '8'], 'time': [668, 951, 1385, 1751, 2384, 2518, 2868, 3684, 5401]}, 'edge': {'target': [], 'time': []}}}",8.75,9174.0,,
,mouselab-mdp,221373.0,0.0-3.0-1.0-13.0,,"[1100, 101, 488]",,,2336,[],"[0, 0, 0, 0, 0, 0, 0, 0, 0, 0, 0, 0, 0]","['', 4, 8, -24, 24, 4, -4, -24, 24, -4, 4, -24, 48]",2.948336531417193e+18,training,13.0,47.0,"[None, None, None]","[-4, 4, 48]","['0', '0', '9', '10', '12']","['left', 'left', 'down']","[1817, 2406, 3393]","{'click': {'state': {'target': ['12'], 'time': [1201]}, 'edge': {'target': [], 'time': []}}, 'mouseover': {'state': {'target': ['12'], 'time': [1087]}, 'edge': {'target': [], 'time': []}}, 'mouseout': {'state': {'target': ['0', '12'], 'time': [871, 1404]}, 'edge': {'target': [], 'time': []}}}",9.72,10421.0,,
,mouselab-mdp,231575.0,0.0-3.0-1.0-14.0,,"[1789, 59, 87]",,,2336,[],"[0, 0, 0, 0, 0, 0, 0, 0, 0, 0, 0, 0, 0]","['', -4, 8, -48, 48, 2, -4, 48, -48, 2, -8, 24, -48]",5.258592950055133e+18,training,14.0,44.0,"[None, None, None]","[2, -4, 48]","['0', '0', '5', '6', '7']","['right', 'right', 'up']","[2490, 3036, 3630]","{'click': {'state': {'target': ['12', '7'], 'time': [1233, 1922]}, 'edge': {'target': [], 'time': []}}, 'mouseover': {'state': {'target': ['12', '6', '7', '6', '8'], 'time': [1159, 1742, 1842, 2125, 2275]}, 'edge': {'target': [], 'time': []}}, 'mouseout': {'state': {'target': ['12', '6', '7', '6', '8', '6', '6'], 'time': [1375, 1792, 2092, 2209, 2542, 2726, 4725]}, 'edge': {'target': [], 'time': []}}}",9.70,10178.0,,
,mouselab-mdp,242058.0,0.0-3.0-1.0-15.0,,"[1625, 48, 88]",,,2336,[],"[0, 0, 0, 0, 0, 0, 0, 0, 0, 0, 0, 0, 0]","['', -2, -4, 48, -24, 4, -8, 48, -48, 2, -8, 24, -48]",-8.867212192286324e+18,training,15.0,42.0,"[None, None, None]","[4, -8, 48]","['0', '0', '5', '6', '7']","['right', 'right', 'up']","[2377, 2943, 3566]","{'click': {'state': {'target': ['12', '7'], 'time': [1241, 1954]}, 'edge': {'target': [], 'time': []}}, 'mouseover': {'state': {'target': ['0', '12', '5', '7', '6'], 'time': [977, 1143, 1727, 1877, 2177]}, 'edge': {'target': [], 'time': []}}, 'mouseout': {'state': {'target': ['0', '0', '12', '5', '7', '6', '6'], 'time': [643, 1010, 1393, 1777, 2143, 2210, 4510]}, 'edge': {'target': [], 'time': []}}}",9.75,10462.0,,
,mouselab-mdp,252264.0,0.0-3.0-1.0-16.0,,"[1698, 42, 95]",,,2336,[],"[0, 0, 0, 0, 0, 0, 0, 0, 0, 0, 0, 0, 0]","['', -4, -8, -48, 24, 2, -8, -48, 48, 2, -8, -24, 24]",-3.537338363954668e+18,training,16.0,40.0,"[None, None, None]","[2, -8, 48]","['0', '0', '5', '6', '8']","['right', 'right', 'down']","[2366, 2897, 3516]","{'click': {'state': {'target': ['12', '8'], 'time': [1180, 1881]}, 'edge': {'target': [], 'time': []}}, 'mouseover': {'state': {'target': ['0', '12', '8'], 'time': [836, 1103, 1836]}, 'edge': {'target': [], 'time': []}}, 'mouseout': {'state': {'target': ['0', '0', '12', '8'], 'time': [586, 886, 1353, 2620]}, 'edge': {'target': [], 'time': []}}}",9.67,10178.0,,
,mouselab-mdp,263670.0,0.0-3.0-1.0-17.0,,"[955, 431, 112]",,,2336,[],"[0, 0, 0, 0, 0, 0, 0, 0, 0, 0, 0, 0, 0]","['', -4, -8, -48, -48, 4, 4, 24, 48, -4, -4, 24, 48]",7.07260772544739e+18,training,17.0,39.0,"[None, None, None]","[-4, -4, 48]","['0', '0', '9', '10', '12']","['left', 'left', 'down']","[1652, 2600, 3231]","{'click': {'state': {'target': ['12'], 'time': [1109]}, 'edge': {'target': [], 'time': []}}, 'mouseover': {'state': {'target': ['12'], 'time': [1019]}, 'edge': {'target': [], 'time': []}}, 'mouseout': {'state': {'target': ['0', '12'], 'time': [852, 1302]}, 'edge': {'target': [], 'time': []}}}",10.70,11383.0,,
,mouselab-mdp,273768.0,0.0-3.0-1.0-18.0,,"[2415, 60, 106]",,,2336,[],"[0, 0, 0, 0, 0, 0, 0, 0, 0, 0, 0, 0, 0]","['', -2, 8, 48, 24, 4, 8, 48, 48, -4, 4, 24, 24]",8.067169575405887e+17,training,18.0,58.0,"[None, None, None]","[4, 8, 48]","['0', '0', '5', '6', '7']","['right', 'right', 'up']","[3116, 3691, 4304]","{'click': {'state': {'target': ['12', '7'], 'time': [1342, 2633]}, 'edge': {'target': [], 'time': []}}, 'mouseover': {'state': {'target': ['12', '6', '7', '6'], 'time': [1262, 2079, 2562, 2963]}, 'edge': {'target': [], 'time': []}}, 'mouseout': {'state': {'target': ['0', '12', '6', '7', '6', '8'], 'time': [1096, 1479, 2146, 2912, 3029, 8479]}, 'edge': {'target': [], 'time': []}}}",9.70,10075.0,,
,mouselab-mdp,282930.0,0.0-3.0-1.0-19.0,,"[2326, 62, 102]",,,2336,[],"[0, 0, 0, 0, 0, 0, 0, 0, 0, 0, 0, 0, 0]","['', -4, -8, -48, -48, -2, -8, -48, 48, -2, 4, -24, -24]",5.130275037508485e+18,training,19.0,35.0,"[None, None, None]","[-2, -8, 48]","['0', '0', '5', '6', '8']","['right', 'right', 'down']","[2964, 3527, 4134]","{'click': {'state': {'target': ['12', '3', '8'], 'time': [1044, 1837, 2470]}, 'edge': {'target': [], 'time': []}}, 'mouseover': {'state': {'target': ['12', '5', '3', '6', '8'], 'time': [980, 1547, 1747, 2230, 2330]}, 'edge': {'target': [], 'time': []}}, 'mouseout': {'state': {'target': ['0', '12', '5', '3', '6', '8', '8', '8'], 'time': [830, 1230, 1563, 1997, 2297, 2730, 3230, 5063]}, 'edge': {'target': [], 'time': []}}}",8.64,9138.0,,
,mouselab-mdp,294088.0,0.0-3.0-2.0-0.0,,"[978, 437, 88]",,,2336,[],"[0, 0, 0, 0, 0, 0, 0, 0, 0, 0, 0, 0, 0]","['', -4, -4, 48, -24, -4, 4, -48, 48, -2, -8, 24, 48]",5.850565339829589e+18,test,20.0,37.0,"[None, None, None]","[-2, -8, 48]","['0', '0', '9', '10', '12']","['left', 'left', 'down']","[1647, 2593, 3211]","{'click': {'state': {'target': ['12'], 'time': [1126]}, 'edge': {'target': [], 'time': []}}, 'mouseover': {'state': {'target': ['12'], 'time': [1104]}, 'edge': {'target': [], 'time': []}}, 'mouseout': {'state': {'target': ['0', '12'], 'time': [921, 1287]}, 'edge': {'target': [], 'time': []}}}",10.67,11136.0,,
,mouselab-mdp,305043.0,0.0-3.0-2.0-1.0,,"[4976, 182, 260]",,,2336,[],"[0, 0, 0, 0, 0, 0, 0, 0, 0, 0, 0, 0, 0]","['', -2, 8, -24, -24, -2, 4, -48, 24, -4, -8, 48, -48]",5.44134319392284e+18,test,21.0,31.0,"[None, None, None]","[-4, -8, 48]","['0', '0', '9', '10', '11']","['left', 'left', 'up']","[5686, 6379, 7174]","{'click': {'state': {'target': ['12', '3', '8', '7', '11'], 'time': [1352, 2103, 2741, 3656, 5133]}, 'edge': {'target': [], 'time': []}}, 'mouseover': {'state': {'target': ['9', '12', '5', '3', '5', '8', '6', '7', '5', '0', '9', '10', '11', '10'], 'time': [1062, 1278, 1895, 2028, 2495, 2612, 3345, 3445, 3912, 4045, 4095, 4228, 5062, 5545]}, 'edge': {'target': [], 'time': []}}, 'mouseout': {'state': {'target': ['0', '9', '12', '5', '3', '5', '8', '8', '6', '7', '5', '0', '9', '10', '11', '10'], 'time': [629, 1162, 1545, 1912, 2296, 2512, 3012, 3328, 3395, 3828, 3945, 4062, 4178, 4478, 5329, 5579]}, 'edge': {'target': [], 'time': []}}}",9.71,10932.0,,
,mouselab-mdp,315440.0,0.0-3.0-2.0-2.0,,"[4727, 58, 165]",,,2336,[],"[0, 0, 0, 0, 0, 0, 0, 0, 0, 0, 0, 0, 0]","['', 4, 4, 48, 24, 4, 8, -24, -48, 2, -4, -48, 24]",-4.315514392980278e+18,test,22.0,51.0,"[None, None, None]","[4, 4, 48]","['0', '0', '1', '2', '3']","['up', 'up', 'right']","[5387, 5967, 6658]","{'click': {'state': {'target': ['12', '7', '8', '11', '4'], 'time': [1608, 2388, 2908, 3732, 4349]}, 'edge': {'target': [], 'time': []}}, 'mouseover': {'state': {'target': ['0', '12', '12', '5', '7', '6', '8', '0', '11', '4', '1', '3'], 'time': [825, 1193, 1592, 2192, 2292, 2576, 2725, 3375, 3659, 4225, 4659, 4892]}, 'edge': {'target': [], 'time': []}}, 'mouseout': {'state': {'target': ['0', '0', '12', '12', '5', '7', '6', '8', '0', '11', '4', '1', '3', '8'], 'time': [559, 959, 1346, 1809, 2225, 2542, 2659, 3025, 3392, 3875, 4509, 4759, 5125, 8192]}, 'edge': {'target': [], 'time': []}}}",9.66,10376.0,,
,mouselab-mdp,324944.0,0.0-3.0-2.0-3.0,,"[1044, 91, 167]",,,2336,[],"[0, 0, 0, 0, 0, 0, 0, 0, 0, 0, 0, 0, 0]","['', -2, 8, -24, 48, 2, 4, -48, 24, 4, -4, 48, 48]",3.761354316659214e+18,test,23.0,47.0,"[None, None, None]","[4, -4, 48]","['0', '0', '9', '10', '12']","['left', 'left', 'down']","[1744, 2355, 3047]","{'click': {'state': {'target': ['12'], 'time': [1166]}, 'edge': {'target': [], 'time': []}}, 'mouseover': {'state': {'target': ['0', '12'], 'time': [878, 1045]}, 'edge': {'target': [], 'time': []}}, 'mouseout': {'state': {'target': ['0', '0', '12'], 'time': [612, 911, 1362]}, 'edge': {'target': [], 'time': []}}}",8.70,9484.0,,
,mouselab-mdp,335593.0,0.0-3.0-2.0-4.0,,"[1740, 56, 121]",,,2336,[],"[0, 0, 0, 0, 0, 0, 0, 0, 0, 0, 0, 0, 0]","['', 2, 4, -24, 48, -2, -8, 48, 24, 4, 8, -48, -48]",-2.5975390318514273e+18,test,24.0,36.0,"[None, None, None]","[-2, -8, 48]","['0', '0', '5', '6', '7']","['right', 'right', 'up']","[2348, 2930, 3576]","{'click': {'state': {'target': ['12', '7'], 'time': [1056, 1758]}, 'edge': {'target': [], 'time': []}}, 'mouseover': {'state': {'target': ['12', '5', '7', '6', '8'], 'time': [1004, 1571, 1638, 2005, 2138]}, 'edge': {'target': [], 'time': []}}, 'mouseout': {'state': {'target': ['0', '12', '5', '7', '6', '8'], 'time': [821, 1238, 1588, 1955, 2088, 2488]}, 'edge': {'target': [], 'time': []}}}",9.61,10626.0,,
,mouselab-mdp,347759.0,0.0-3.0-2.0-5.0,,"[5401, 52, 31]",,,2336,[],"[0, 0, 0, 0, 0, 0, 0, 0, 0, 0, 0, 0, 0]","['', -2, -8, 24, 24, -2, -8, 24, -24, 4, -4, 24, -48]",7.419235085028046e+18,test,25.0,9.0,"[None, None, None]","[-2, -8, 24]","['0', '0', '5', '6', '7']","['right', 'right', 'up']","[6446, 6995, 7540]","{'click': {'state': {'target': ['12', '3', '4', '11', '8'], 'time': [1737, 2459, 3237, 4393, 5067]}, 'edge': {'target': [], 'time': []}}, 'mouseover': {'state': {'target': ['12', '12', '0', '1', '3', '1', '4', '11', '9', '0', '8'], 'time': [1324, 1607, 2124, 2224, 2408, 2974, 3140, 3757, 4624, 4724, 4907]}, 'edge': {'target': [], 'time': []}}, 'mouseout': {'state': {'target': ['0', '12', '12', '0', '1', '3', '1', '4', '11', '9', '0', '8'], 'time': [1241, 1357, 1891, 2157, 2274, 2707, 3041, 3407, 4541, 4691, 4741, 5324]}, 'edge': {'target': [], 'time': []}}}",10.04,12145.0,,
,mouselab-mdp,358628.0,0.0-3.0-2.0-6.0,,"[4791, 113, 71]",,,2336,[],"[0, 0, 0, 0, 0, 0, 0, 0, 0, 0, 0, 0, 0]","['', -2, 4, -24, 24, -4, 8, -24, -48, -4, -8, 24, 24]",3.0235896747776123e+18,test,26.0,21.0,"[None, None, None]","[-2, 4, 24]","['0', '0', '1', '2', '4']","['up', 'up', 'left']","[6010, 6657, 7247]","{'click': {'state': {'target': ['12', '3', '7', '8', '11'], 'time': [1939, 2578, 3388, 3969, 5093]}, 'edge': {'target': [], 'time': []}}, 'mouseover': {'state': {'target': ['0', '12', '12', '5', '3', '7', '7', '6', '8', '9', '11', '4', '1'], 'time': [1407, 1557, 1807, 2324, 2507, 2857, 3340, 3757, 3824, 4391, 5007, 5524, 5990]}, 'edge': {'target': [], 'time': []}}, 'mouseout': {'state': {'target': ['8', '5', '9', '0', '12', '12', '5', '3', '7', '7', '6', '8', '9', '11', '4', '1', '6', '8'], 'time': [674, 740, 1004, 1441, 1608, 2091, 2374, 2791, 2941, 3741, 3807, 4207, 4707, 5224, 5857, 6057, 6407, 8524]}, 'edge': {'target': [], 'time': []}}}",9.22,10847.0,,
,mouselab-mdp,368861.0,0.0-3.0-2.0-7.0,,"[1333, 66, 62]",,,2336,[],"[0, 0, 0, 0, 0, 0, 0, 0, 0, 0, 0, 0, 0]","['', -2, 8, 24, -48, 4, 4, -48, -24, 2, 8, -48, 48]",5.188170829716248e+18,test,27.0,57.0,"[None, None, None]","[2, 8, 48]","['0', '0', '9', '10', '12']","['left', 'left', 'down']","[2056, 2642, 3237]","{'click': {'state': {'target': ['12'], 'time': [1410]}, 'edge': {'target': [], 'time': []}}, 'mouseover': {'state': {'target': ['0', '12', '12'], 'time': [906, 1022, 1406]}, 'edge': {'target': [], 'time': []}}, 'mouseout': {'state': {'target': ['0', '0', '12', '12'], 'time': [639, 923, 1073, 1739]}, 'edge': {'target': [], 'time': []}}}",9.72,10212.0,,
,mouselab-mdp,379578.0,0.0-3.0-2.0-8.0,,"[3414, 52, 92]",,,2336,[],"[0, 0, 0, 0, 0, 0, 0, 0, 0, 0, 0, 0, 0]","['', -4, 4, -48, -24, 4, 4, 24, -48, -2, 4, 48, -48]",-3.2418898182311296e+18,test,28.0,46.0,"[None, None, None]","[-2, 4, 48]","['0', '0', '9', '10', '11']","['left', 'left', 'up']","[4034, 4610, 5234]","{'click': {'state': {'target': ['12', '7', '8', '11'], 'time': [1096, 2043, 2562, 3510]}, 'edge': {'target': [], 'time': []}}, 'mouseover': {'state': {'target': ['12', '0', '5', '7', '6', '8', '0', '9', '11'], 'time': [1024, 1507, 1574, 1974, 2290, 2490, 2990, 3024, 3323]}, 'edge': {'target': [], 'time': []}}, 'mouseout': {'state': {'target': ['0', '12', '0', '5', '7', '6', '8', '8', '0', '9', '11', '1', '1', '0'], 'time': [924, 1357, 1540, 1590, 2240, 2374, 2840, 2890, 3007, 3057, 3707, 6786, 8657, 8790]}, 'edge': {'target': [], 'time': []}}}",9.62,10697.0,,
,mouselab-mdp,390005.0,0.0-3.0-2.0-9.0,,"[1658, 79, 110]",,,2336,[],"[0, 0, 0, 0, 0, 0, 0, 0, 0, 0, 0, 0, 0]","['', -4, -4, -48, 24, 4, 4, 48, -24, 4, -4, 48, 24]",1.5188454736172308e+18,test,29.0,54.0,"[None, None, None]","[4, 4, 48]","['0', '0', '5', '6', '7']","['right', 'right', 'up']","[2208, 2784, 3397]","{'click': {'state': {'target': ['12', '7'], 'time': [1003, 1612]}, 'edge': {'target': [], 'time': []}}, 'mouseover': {'state': {'target': ['12', '5', '7', '6', '8'], 'time': [918, 1468, 1535, 1851, 2068]}, 'edge': {'target': [], 'time': []}}, 'mouseout': {'state': {'target': ['0', '12', '5', '7', '6', '8', '6'], 'time': [622, 1202, 1485, 1818, 1902, 2368, 4651]}, 'edge': {'target': [], 'time': []}}}",9.55,10402.0,,
,mouselab-mdp,399932.0,0.0-3.0-2.0-10.0,,"[1289, 92, 85]",,,2336,[],"[0, 0, 0, 0, 0, 0, 0, 0, 0, 0, 0, 0, 0]","['', -2, 8, 24, -48, -4, 4, -48, -48, -4, 8, 24, 48]",6.73604779986745e+18,test,30.0,51.0,"[None, None, None]","[-4, 8, 48]","['0', '0', '9', '10', '12']","['left', 'left', 'down']","[1925, 2503, 3114]","{'click': {'state': {'target': ['12'], 'time': [1322]}, 'edge': {'target': [], 'time': []}}, 'mouseover': {'state': {'target': ['0', '12'], 'time': [877, 1193]}, 'edge': {'target': [], 'time': []}}, 'mouseout': {'state': {'target': ['0', '0', '12'], 'time': [640, 926, 1577]}, 'edge': {'target': [], 'time': []}}}",8.64,9903.0,,
,mouselab-mdp,409361.0,0.0-3.0-2.0-11.0,,"[1033, 30, 126]",,,2336,[],"[0, 0, 0, 0, 0, 0, 0, 0, 0, 0, 0, 0, 0]","['', 4, -8, 48, 24, -2, -4, 24, -24, 4, -4, 48, 48]",-8.930756420240891e+18,test,31.0,47.0,"[None, None, None]","[4, -4, 48]","['0', '0', '9', '10', '12']","['left', 'left', 'down']","[1860, 2400, 3029]","{'click': {'state': {'target': ['12'], 'time': [1383]}, 'edge': {'target': [], 'time': []}}, 'mouseover': {'state': {'target': ['0', '9', '12'], 'time': [1034, 1084, 1184]}, 'edge': {'target': [], 'time': []}}, 'mouseout': {'state': {'target': ['0', '0', '9', '12', '0'], 'time': [784, 1051, 1102, 1634, 6883]}, 'edge': {'target': [], 'time': []}}}",8.83,9406.0,,
,mouselab-mdp,419051.0,0.0-3.0-2.0-12.0,,"[3631, 288, 182]",,,2336,[],"[0, 0, 0, 0, 0, 0, 0, 0, 0, 0, 0, 0, 0]","['', 2, 4, -48, 24, -4, 8, 24, -48, 4, -8, 48, 24]",8.563081952235477e+18,test,32.0,40.0,"[None, None, None]","[4, -8, 48]","['0', '0', '9', '10', '11']","['left', 'left', 'up']","[4166, 4979, 5689]","{'click': {'state': {'target': ['12', '7', '8', '11'], 'time': [1745, 2621, 3077, 3692]}, 'edge': {'target': [], 'time': []}}, 'mouseover': {'state': {'target': ['9', '12', '12', '5', '7', '8', '0', '9', '11'], 'time': [856, 1172, 1705, 2339, 2556, 3005, 3472, 3506, 3605]}, 'edge': {'target': [], 'time': []}}, 'mouseout': {'state': {'target': ['0', '9', '12', '12', '5', '7', '8', '0', '9', '11', '1'], 'time': [440, 872, 1255, 2022, 2439, 2805, 3339, 3489, 3522, 4039, 4472]}, 'edge': {'target': [], 'time': []}}}",8.54,9668.0,,
,mouselab-mdp,431480.0,0.0-3.0-2.0-13.0,,"[3571, 204, 206]",,,2336,[],"[0, 0, 0, 0, 0, 0, 0, 0, 0, 0, 0, 0, 0]","['', 4, -4, 24, -24, -2, -4, -24, -24, 2, -4, 48, 24]",1.598574912455298e+18,test,33.0,41.0,"[None, None, None]","[2, -4, 48]","['0', '0', '9', '10', '11']","['left', 'left', 'up']","[5907, 6635, 7353]","{'click': {'state': {'target': ['7', '8', '12', '4', '11'], 'time': [2903, 3621, 4218, 4900, 5356]}, 'edge': {'target': [], 'time': []}}, 'mouseover': {'state': {'target': ['0', '5', '7', '6', '8', '12', '4', '11', '1'], 'time': [2563, 2730, 2813, 3413, 3480, 4063, 4780, 5280, 5897]}, 'edge': {'target': [], 'time': []}}, 'mouseout': {'state': {'target': ['0', '5', '7', '6', '8', '12', '4', '11', '1'], 'time': [2634, 2748, 3347, 3447, 3947, 4397, 5147, 5547, 5947]}, 'edge': {'target': [], 'time': []}}}",10.34,12406.0,,
,mouselab-mdp,543820.0,0.0-3.0-2.0-14.0,,"[1993, 98, 144]",,,2336,[],"[0, 0, 0, 0, 0, 0, 0, 0, 0, 0, 0, 0, 0]","['', 2, 8, -48, -48, 4, 4, -48, 48, 4, 8, 24, -48]",2.59484151301768e+18,test,34.0,53.0,"[None, None, None]","[4, 4, 48]","['0', '0', '5', '6', '8']","['right', 'right', 'down']","[2562, 3185, 3829]","{'click': {'state': {'target': ['12', '7', '8'], 'time': [990, 1561, 1964]}, 'edge': {'target': [], 'time': []}}, 'mouseover': {'state': {'target': ['0', '12', '5', '7', '6', '8', '9'], 'time': [768, 918, 1384, 1467, 1784, 1901, 2318]}, 'edge': {'target': [], 'time': []}}, 'mouseout': {'state': {'target': ['0', '12', '5', '7', '6', '8', '9', '0', '5', '6'], 'time': [801, 1218, 1401, 1767, 1851, 2202, 2568, 2635, 2684, 2734]}, 'edge': {'target': [], 'time': []}}}",9.57,112317.0,,
,mouselab-mdp,560569.0,0.0-3.0-2.0-15.0,,"[3983, 149, 138]",,,2336,[],"[0, 0, 0, 0, 0, 0, 0, 0, 0, 0, 0, 0, 0]","['', 2, 8, -48, 48, 4, 4, -24, 48, -4, -4, 48, -24]",-9.094639660769571e+18,test,35.0,53.0,"[None, None, None]","[4, 4, 48]","['0', '0', '5', '6', '8']","['right', 'right', 'down']","[4689, 5359, 6029]","{'click': {'state': {'target': ['12', '7', '8'], 'time': [1501, 2125, 2512]}, 'edge': {'target': [], 'time': []}}, 'mouseover': {'state': {'target': ['0', '12', '5', '7', '6', '8', '6', '5', '6'], 'time': [972, 1408, 1891, 1991, 2324, 2491, 3191, 3374, 4591]}, 'edge': {'target': [], 'time': []}}, 'mouseout': {'state': {'target': ['0', '0', '12', '5', '7', '6', '8', '6', '5', '6'], 'time': [787, 991, 1708, 1941, 2307, 2391, 2858, 3341, 3841, 4741]}, 'edge': {'target': [], 'time': []}}}",9.71,16723.0,,
,mouselab-mdp,576092.0,0.0-3.0-2.0-16.0,,"[10744, 142, 97]",,,2336,[],"[0, 0, 0, 0, 0, 0, 0, 0, 0, 0, 0, 0, 0]","['', -4, -4, -24, 24, -4, -8, -48, -48, 2, -4, -24, 24]",-5.712514638697657e+18,test,36.0,14.0,"[None, None, None]","[2, -4, 24]","['0', '0', '9', '10', '12']","['left', 'left', 'down']","[11964, 12603, 13192]","{'click': {'state': {'target': ['12', '8', '7', '11', '4', '3', '10', '2'], 'time': [1734, 2394, 2858, 3431, 3975, 4482, 7731, 9357]}, 'edge': {'target': [], 'time': []}}, 'mouseover': {'state': {'target': ['12', '8', '7', '5', '11', '4', '3', '9', '10', '0', '1', '2', '1', '5'], 'time': [1710, 2310, 2777, 3110, 3310, 3860, 4393, 7477, 7610, 9060, 9127, 9293, 9627, 9727]}, 'edge': {'target': [], 'time': []}}, 'mouseout': {'state': {'target': ['6', '5', '0', '12', '8', '7', '5', '11', '4', '3', '9', '10', '0', '1', '2', '1', '5', '8'], 'time': [560, 893, 1527, 1994, 2543, 3010, 3144, 3627, 4143, 4643, 7544, 7893, 9077, 9210, 9582, 9660, 9827, 10494]}, 'edge': {'target': [], 'time': []}}}",13.68,15500.0,,
,mouselab-mdp,587014.0,0.0-3.0-2.0-17.0,,"[2333, 76, 42]",,,2336,[],"[0, 0, 0, 0, 0, 0, 0, 0, 0, 0, 0, 0, 0]","['', 4, 8, 24, 48, -4, -8, -24, -24, 4, -4, 24, 48]",-6.519267732573938e+18,test,37.0,47.0,"[None, None, None]","[4, -4, 48]","['0', '0', '9', '10', '12']","['left', 'left', 'down']","[2950, 3533, 4065]","{'click': {'state': {'target': ['12'], 'time': [1300]}, 'edge': {'target': [], 'time': []}}, 'mouseover': {'state': {'target': ['0', '12', '5', '5', '0'], 'time': [766, 1156, 1656, 1889, 2039]}, 'edge': {'target': [], 'time': []}}, 'mouseout': {'state': {'target': ['0', '0', '12', '5', '5', '0', '0'], 'time': [694, 806, 1456, 1722, 2006, 2706, 4423]}, 'edge': {'target': [], 'time': []}}}",8.62,10901.0,,
,mouselab-mdp,598303.0,0.0-3.0-2.0-18.0,,"[5368, 65, 113]",,,2336,[],"[0, 0, 0, 0, 0, 0, 0, 0, 0, 0, 0, 0, 0]","['', -2, 4, -24, 48, -2, 4, -24, 48, 4, -8, 24, 48]",3.364858280464458e+17,test,38.0,46.0,"[None, None, None]","[-2, 4, 48]","['0', '0', '5', '6', '8']","['right', 'right', 'down']","[6354, 6950, 7596]","{'click': {'state': {'target': ['12', '10', '8', '6'], 'time': [1680, 3657, 4801, 5544]}, 'edge': {'target': [], 'time': []}}, 'mouseover': {'state': {'target': ['12', '12', '9', '10', '5', '6', '8', '6', '5'], 'time': [1266, 1583, 2366, 3483, 4449, 4549, 4732, 5416, 6032]}, 'edge': {'target': [], 'time': []}}, 'mouseout': {'state': {'target': ['0', '0', '12', '12', '9', '10', '5', '6', '8', '8', '6', '5'], 'time': [599, 1166, 1316, 1866, 2833, 3849, 4499, 4666, 4983, 5382, 5682, 6316]}, 'edge': {'target': [], 'time': []}}}",9.99,11267.0,,
,mouselab-mdp,609184.0,0.0-3.0-2.0-19.0,,"[6848, 101, 95]",,,2336,[],"[0, 0, 0, 0, 0, 0, 0, 0, 0, 0, 0, 0, 0]","['', -4, -4, 24, -24, -4, 4, 24, 24, 4, 4, 48, -48]",-7.890144164692454e+18,test,39.0,50.0,"[None, None, None]","[4, 4, 48]","['0', '0', '9', '10', '11']","['left', 'left', 'up']","[7659, 8281, 8908]","{'click': {'state': {'target': ['12', '7', '8', '11', '3', '4'], 'time': [1491, 2081, 2563, 3301, 4833, 5619]}, 'edge': {'target': [], 'time': []}}, 'mouseover': {'state': {'target': ['0', '12', '5', '7', '6', '8', '9', '11', '9', '9', '1', '3', '4', '9', '10'], 'time': [927, 1279, 1860, 2010, 2277, 2393, 3061, 3193, 4143, 4543, 4627, 4760, 5496, 6394, 7144]}, 'edge': {'target': [], 'time': []}}, 'mouseout': {'state': {'target': ['0', '0', '12', '5', '7', '6', '8', '9', '11', '9', '9', '1', '3', '4', '9', '10', '9', '0', '5'], 'time': [727, 944, 1627, 1927, 2243, 2343, 2727, 3078, 3460, 4244, 4560, 4677, 5045, 5994, 6644, 7677, 7977, 8111, 8394]}, 'edge': {'target': [], 'time': []}}}",9.39,10859.0,,
,mouselab-mdp,179858.0,0.0-3.0-1.0-0.0,,"[15027, 398, 183]",,,2271,[],"[0, 0, 0, 0, 0, 0, 0, 0, 0, 0, 0, 0, 0]","['', 2, 8, 48, -24, 2, 8, -24, 24, -4, -4, -48, 24]",-2.4102857850257306e+18,training,0.0,30.0,"[None, None, None]","[2, 8, 24]","['0', '0', '5', '6', '8']","['right', 'right', 'down']","[16748, 17642, 18329]","{'click': {'state': {'target': ['5', '6', '7', '8'], 'time': [3389, 5911, 8254, 10126]}, 'edge': {'target': [], 'time': []}}, 'mouseover': {'state': {'target': ['0', '5', '6', '7', '8'], 'time': [2486, 2903, 5614, 7486, 9750]}, 'edge': {'target': [], 'time': []}}, 'mouseout': {'state': {'target': ['2', '1', '0', '0', '5', '6', '7', '6', '8'], 'time': [268, 1116, 1436, 2756, 5294, 7146, 9433, 9700, 10568]}, 'edge': {'target': [], 'time': []}}}",18.84,20275.0,,
,mouselab-mdp,192185.0,0.0-3.0-1.0-1.0,,"[7598, 412, 346]",,,2271,[],"[0, 0, 0, 0, 0, 0, 0, 0, 0, 0, 0, 0, 0]","['', 2, 8, -48, 48, 4, 4, -24, 48, -4, -4, 48, -24]",-9.094639660769571e+18,training,1.0,54.0,"[None, None, None]","[2, 8, 48]","['0', '0', '1', '2', '4']","['up', 'up', 'left']","[9045, 9965, 10811]","{'click': {'state': {'target': ['1', '2', '3', '4'], 'time': [2554, 4585, 5900, 6937]}, 'edge': {'target': [], 'time': []}}, 'mouseover': {'state': {'target': ['1', '2', '3', '4'], 'time': [2252, 4170, 5544, 6659]}, 'edge': {'target': [], 'time': []}}, 'mouseout': {'state': {'target': ['0', '1', '2', '3', '2', '4'], 'time': [1302, 3991, 5305, 6426, 6545, 7928]}, 'edge': {'target': [], 'time': []}}}",11.30,12221.0,,
,mouselab-mdp,203929.0,0.0-3.0-1.0-2.0,,"[7234, 138, 515]",,,2271,[],"[0, 0, 0, 0, 0, 0, 0, 0, 0, 0, 0, 0, 0]","['', -2, -8, -24, 48, 4, 8, 48, -48, -4, -8, -24, -48]",-1.966432234622665e+18,training,2.0,55.0,"[None, None, None]","[4, 8, 48]","['0', '0', '5', '6', '7']","['right', 'right', 'up']","[8754, 9394, 10402]","{'click': {'state': {'target': ['9', '1', '5', '6', '7'], 'time': [2630, 3653, 4854, 6001, 6912]}, 'edge': {'target': [], 'time': []}}, 'mouseover': {'state': {'target': ['9', '1', '5', '6', '7'], 'time': [2441, 3341, 4493, 5645, 6663]}, 'edge': {'target': [], 'time': []}}, 'mouseout': {'state': {'target': ['1', '0', '9', '1', '5', '5', '6'], 'time': [1021, 1861, 3241, 4193, 5394, 5612, 6563]}, 'edge': {'target': [], 'time': []}}}",10.90,11650.0,,
,mouselab-mdp,220049.0,0.0-3.0-1.0-3.0,,"[12040, 291, 322]",,,2271,[],"[0, 0, 0, 0, 0, 0, 0, 0, 0, 0, 0, 0, 0]","['', -2, -8, -48, -24, 2, -8, -48, 48, -2, 4, -48, -48]",-9.742857968514916e+17,training,3.0,34.0,"[None, None, None]","[2, -8, 48]","['0', '0', '5', '6', '8']","['right', 'right', 'down']","[13307, 14099, 14914]","{'click': {'state': {'target': ['1', '9', '5', '6', '7', '8', '2', '10'], 'time': [2111, 2866, 3687, 4603, 5743, 6582, 9583, 10670]}, 'edge': {'target': [], 'time': []}}, 'mouseover': {'state': {'target': ['1', '9', '5', '6', '7', '8', '2', '10', '0'], 'time': [1756, 2620, 3373, 4291, 5527, 6324, 9347, 10413, 11585]}, 'edge': {'target': [], 'time': []}}, 'mouseout': {'state': {'target': ['7', '1', '9', '5', '6', '7', '6', '8', '8', '1', '2', '10', '9', '0'], 'time': [519, 2523, 3240, 4241, 5390, 6128, 6224, 7078, 7612, 9182, 10033, 11168, 11351, 11602]}, 'edge': {'target': [], 'time': []}}}",15.41,16035.0,,
,mouselab-mdp,241338.0,0.0-3.0-1.0-4.0,,"[15877, 241, 204]",,,2271,[],"[0, 0, 0, 0, 0, 0, 0, 0, 0, 0, 0, 0, 0]","['', -4, 4, -48, -24, 4, 4, 24, -48, -2, 4, 48, -48]",-3.2418898182311296e+18,training,4.0,38.0,"[None, None, None]","[-2, 4, 48]","['0', '0', '9', '10', '11']","['left', 'left', 'up']","[18011, 18757, 19460]","{'click': {'state': {'target': ['1', '5', '6', '7', '8', '2', '3', '4', '9', '10', '12', '11'], 'time': [3278, 4120, 5457, 6344, 7633, 10080, 11204, 12158, 13680, 14432, 15364, 16131]}, 'edge': {'target': [], 'time': []}}, 'mouseover': {'state': {'target': ['1', '5', '6', '7', '8', '2', '3', '4', '9', '10', '12', '11'], 'time': [2893, 3877, 5115, 6099, 7351, 9888, 11007, 11958, 13390, 14276, 15095, 15863]}, 'edge': {'target': [], 'time': []}}, 'mouseout': {'state': {'target': ['0', '1', '5', '5', '6', '7', '6', '8', '5', '1', '2', '3', '2', '4', '9', '10', '12', '10', '11'], 'time': [2154, 3694, 4509, 4877, 6049, 7233, 7301, 8269, 9304, 9738, 10939, 11724, 11857, 12976, 14078, 14879, 15780, 15847, 16799]}, 'edge': {'target': [], 'time': []}}}",19.96,21203.0,,
,mouselab-mdp,266613.0,0.0-3.0-1.0-5.0,,"[20641, 117, 224]",,,2271,[],"[0, 0, 0, 0, 0, 0, 0, 0, 0, 0, 0, 0, 0]","['', -2, -4, 48, 24, -2, -4, -48, -24, -4, -4, 24, 48]",-3.1773427201591757e+18,training,5.0,31.0,"[None, None, None]","[-2, -4, 48]","['0', '0', '1', '2', '3']","['up', 'up', 'right']","[22329, 22951, 23681]","{'click': {'state': {'target': ['5', '1', '9', '2', '6', '10', '11', '4', '7', '8', '3'], 'time': [2809, 3848, 4604, 6501, 8285, 9272, 11052, 13312, 14605, 15557, 20970]}, 'edge': {'target': [], 'time': []}}, 'mouseover': {'state': {'target': ['0', '5', '1', '9', '2', '6', '10', '11', '4', '7', '8', '3'], 'time': [2237, 2523, 3622, 4375, 6211, 7561, 8997, 10718, 12821, 14356, 15288, 20781]}, 'edge': {'target': [], 'time': []}}, 'mouseout': {'state': {'target': ['10', '9', '0', '0', '5', '1', '9', '1', '2', '1', '6', '9', '10', '11', '4', '1', '7', '6', '8', '3'], 'time': [1019, 1085, 2022, 2456, 3307, 4275, 5327, 6176, 6961, 7113, 8715, 8965, 10601, 12420, 13907, 13989, 15124, 15205, 16943, 21467]}, 'edge': {'target': [], 'time': []}}}",24.23,25226.0,,
,mouselab-mdp,276713.0,0.0-3.0-1.0-6.0,,"[4004, 100, 363]",,,2271,[],"[0, 0, 0, 0, 0, 0, 0, 0, 0, 0, 0, 0, 0]","['', 4, -4, -48, 48, -4, 8, 48, -24, 2, 4, 24, 48]",-8.591125776345143e+18,training,6.0,45.0,"[None, None, None]","[4, -4, 48]","['0', '0', '1', '2', '4']","['up', 'up', 'left']","[5652, 6260, 7124]","{'click': {'state': {'target': ['1', '2', '4'], 'time': [2367, 3193, 3948]}, 'edge': {'target': [], 'time': []}}, 'mouseover': {'state': {'target': ['1', '2', '4'], 'time': [2116, 3013, 3749]}, 'edge': {'target': [], 'time': []}}, 'mouseout': {'state': {'target': ['0', '1', '2', '4', '9'], 'time': [1932, 2930, 3701, 4803, 8925]}, 'edge': {'target': [], 'time': []}}}",9.65,10033.0,,
,mouselab-mdp,293101.0,0.0-3.0-1.0-7.0,,"[12369, 185, 413]",,,2271,[],"[0, 0, 0, 0, 0, 0, 0, 0, 0, 0, 0, 0, 0]","['', -2, -4, 48, -48, 4, 8, 48, 24, 2, -4, -48, -24]",-6.802951220459882e+18,training,7.0,50.0,"[None, None, None]","[4, 8, 48]","['0', '0', '5', '6', '7']","['right', 'right', 'up']","[13469, 14155, 15067]","{'click': {'state': {'target': ['1', '2', '4', '9', '10', '12', '11', '5', '6', '7'], 'time': [1879, 2942, 3830, 5139, 6006, 7574, 8529, 9777, 10585, 11649]}, 'edge': {'target': [], 'time': []}}, 'mouseover': {'state': {'target': ['1', '2', '4', '9', '10', '12', '11', '5', '6', '7'], 'time': [1662, 2730, 3664, 4752, 5800, 7336, 8226, 9528, 10362, 11331]}, 'edge': {'target': [], 'time': []}}, 'mouseout': {'state': {'target': ['0', '1', '2', '4', '9', '10', '12', '10', '11', '9', '5', '6', '7'], 'time': [1381, 2679, 3597, 4435, 5703, 7272, 8093, 8176, 8991, 9091, 10230, 11247, 12415]}, 'edge': {'target': [], 'time': []}}}",15.57,16357.0,,
,mouselab-mdp,307935.0,0.0-3.0-1.0-8.0,,"[10034, 117, 198]",,,2271,[],"[0, 0, 0, 0, 0, 0, 0, 0, 0, 0, 0, 0, 0]","['', 4, 4, 48, 24, 4, -4, 24, -48, -2, -8, -24, -48]",5.662483218820924e+17,training,8.0,49.0,"[None, None, None]","[4, 4, 48]","['0', '0', '1', '2', '3']","['up', 'up', 'right']","[12081, 12699, 13395]","{'click': {'state': {'target': ['5', '6', '7', '8', '1', '2', '3'], 'time': [3719, 4664, 5534, 7343, 8722, 9475, 10639]}, 'edge': {'target': [], 'time': []}}, 'mouseover': {'state': {'target': ['0', '5', '6', '7', '8', '1', '1', '2', '3'], 'time': [2549, 3463, 4419, 5336, 6501, 8257, 8491, 9307, 10360]}, 'edge': {'target': [], 'time': []}}, 'mouseout': {'state': {'target': ['0', '5', '6', '7', '6', '8', '5', '1', '1', '2', '3'], 'time': [3400, 4318, 5270, 6405, 6468, 7890, 7957, 8374, 9191, 10110, 11211]}, 'edge': {'target': [], 'time': []}}}",13.90,14764.0,,
,mouselab-mdp,323205.0,0.0-3.0-1.0-9.0,,"[11349, 107, 176]",,,2271,[],"[0, 0, 0, 0, 0, 0, 0, 0, 0, 0, 0, 0, 0]","['', 2, 4, -24, 24, 4, -8, -48, 48, 2, 4, -48, -24]",-6.74953611421507e+18,training,9.0,36.0,"[None, None, None]","[4, -8, 48]","['0', '0', '5', '6', '8']","['right', 'right', 'down']","[12414, 13019, 13693]","{'click': {'state': {'target': ['1', '2', '4', '3', '5', '6', '7', '8'], 'time': [1881, 3561, 4441, 5696, 7192, 8144, 8993, 9889]}, 'edge': {'target': [], 'time': []}}, 'mouseover': {'state': {'target': ['1', '9', '2', '4', '3', '5', '6', '7', '8'], 'time': [1616, 2502, 3350, 4183, 5267, 6856, 7924, 8741, 9593]}, 'edge': {'target': [], 'time': []}}, 'mouseout': {'state': {'target': ['1', '9', '2', '4', '2', '3', '5', '6', '7', '6', '8'], 'time': [2346, 3133, 4135, 5084, 5167, 6505, 7824, 8674, 9460, 9543, 10625]}, 'edge': {'target': [], 'time': []}}}",14.19,15181.0,,
,mouselab-mdp,342117.0,0.0-3.0-1.0-10.0,,"[15503, 32, 122]",,,2271,[],"[0, 0, 0, 0, 0, 0, 0, 0, 0, 0, 0, 0, 0]","['', 2, -4, -24, -48, 4, -8, 48, -48, 2, -8, 48, -48]",2.735284467270542e+18,training,10.0,33.0,"[None, None, None]","[4, -8, 48]","['0', '0', '5', '6', '7']","['right', 'right', 'up']","[16463, 16991, 17614]","{'click': {'state': {'target': ['1', '2', '4', '3', '5', '6', '7', '12', '11', '9', '10'], 'time': [2002, 3276, 4051, 4835, 5994, 7070, 8254, 10760, 12051, 13158, 13754]}, 'edge': {'target': [], 'time': []}}, 'mouseover': {'state': {'target': ['1', '9', '2', '4', '3', '5', '6', '7', '9', '11', '10', '12', '10', '11', '11', '9', '10'], 'time': [1846, 2501, 3101, 3819, 4621, 5722, 6889, 7825, 9594, 10158, 10277, 10375, 11514, 11562, 11847, 12916, 13567]}, 'edge': {'target': [], 'time': []}}, 'mouseout': {'state': {'target': ['0', '1', '9', '1', '2', '4', '2', '3', '5', '5', '6', '7', '9', '11', '10', '12', '10', '11', '11', '9', '10', '10'], 'time': [1330, 2314, 2801, 2935, 3769, 4484, 4570, 5404, 6374, 6740, 7742, 9242, 9811, 10229, 10342, 11497, 11530, 11782, 12465, 13450, 14484, 14618]}, 'edge': {'target': [], 'time': []}}}",18.11,18839.0,,
,mouselab-mdp,358440.0,0.0-3.0-1.0-11.0,,"[11473, 92, 77]",,,2271,[],"[0, 0, 0, 0, 0, 0, 0, 0, 0, 0, 0, 0, 0]","['', -2, -8, 24, 24, -2, -8, 24, -24, 4, -4, 24, -48]",7.419235085028046e+18,training,11.0,16.0,"[None, None, None]","[4, -4, 24]","['0', '0', '9', '10', '11']","['left', 'left', 'up']","[13352, 13949, 14517]","{'click': {'state': {'target': ['1', '2', '9', '10', '11', '12', '8', '7'], 'time': [2699, 3366, 4291, 5062, 6157, 7412, 8755, 9771]}, 'edge': {'target': [], 'time': []}}, 'mouseover': {'state': {'target': ['1', '2', '9', '10', '11', '12', '8', '6', '7'], 'time': [2472, 3226, 4076, 4878, 5676, 7165, 8334, 9250, 9367]}, 'edge': {'target': [], 'time': []}}, 'mouseout': {'state': {'target': ['9', '0', '5', '0', '1', '2', '9', '10', '11', '10', '12', '8', '6', '7', '1', '0'], 'time': [1135, 1184, 1454, 2252, 3157, 3777, 4812, 5610, 6781, 7082, 7896, 9218, 9300, 10905, 15560, 15661]}, 'edge': {'target': [], 'time': []}}}",15.01,16239.0,,
