success,trial_type,time_elapsed,internal_node_id,view_history,rt,responses,correct,pid,revealed_states,num_clicks_accrued,state_rewards,trial_id,block,trial_index,score,simulation_mode,rewards,path,actions,action_times,queries,displayed_time,trial_time,stimulus,button_pressed
,survey-multi-choice,218535.0,0.0-1.0-1.0,,59935.0,"{""Q0"":""$-48 to $48"",""Q1"":""No, the cost is always $1.00."",""Q2"":""There is no limit"",""Q3"":""The better I perform the higher my bonus will be."",""Q4"":""No, the structure of the web will be different each time.""}","{'Q0': '$-48 to $48', 'Q1': 'No, the cost is always $1.00.', 'Q2': 'There is no limit', 'Q3': 'The better I perform the higher my bonus will be.', 'Q4': 'No, the amount of cash at each node of the web may be different each time.'}",2315,,,,,,,,,,,,,,,,,
,survey-multi-choice,414701.0,0.0-1.1-1.1,,77928.0,"{""Q0"":""$-48 to $48"",""Q1"":""No, the cost is always $1.00."",""Q2"":""One time"",""Q3"":""I will receive a $1 bonus if I perform well, otherwise I will receive no bonus."",""Q4"":""No, the amount of cash at each node of the web may be different each time.""}","{'Q0': '$-48 to $48', 'Q1': 'No, the cost is always $1.00.', 'Q2': 'There is no limit', 'Q3': 'The better I perform the higher my bonus will be.', 'Q4': 'No, the amount of cash at each node of the web may be different each time.'}",2315,,,,,,,,,,,,,,,,,
,survey-multi-choice,479722.0,0.0-1.2-1.2,,30376.0,"{""Q0"":""$-48 to $48"",""Q1"":""No, the cost is always $1.00."",""Q2"":""One time"",""Q3"":""I will receive a $1 bonus if I perform well, otherwise I will receive no bonus."",""Q4"":""No, the amount of cash at each node of the web may be different each time.""}","{'Q0': '$-48 to $48', 'Q1': 'No, the cost is always $1.00.', 'Q2': 'There is no limit', 'Q3': 'The better I perform the higher my bonus will be.', 'Q4': 'No, the amount of cash at each node of the web may be different each time.'}",2315,,,,,,,,,,,,,,,,,
,survey-multi-choice,64723.0,0.0-1.0-1.0,,18982.0,"{""Q0"":""$-48 to $48"",""Q1"":""No, the cost is always $1.00."",""Q2"":""One time"",""Q3"":""The better I perform the higher my bonus will be."",""Q4"":""No, the amount of cash at each node of the web may be different each time.""}","{'Q0': '$-48 to $48', 'Q1': 'No, the cost is always $1.00.', 'Q2': 'There is no limit', 'Q3': 'The better I perform the higher my bonus will be.', 'Q4': 'No, the amount of cash at each node of the web may be different each time.'}",2200,,,,,,,,,,,,,,,,,
,survey-multi-choice,67533.0,0.0-1.0-1.0,,24213.0,"{""Q0"":""$0 to $50"",""Q1"":""No, the cost is always $1.00."",""Q2"":""There is no limit"",""Q3"":""The better I perform the higher my bonus will be."",""Q4"":""No, the amount of cash at each node of the web may be different each time.""}","{'Q0': '$-48 to $48', 'Q1': 'No, the cost is always $1.00.', 'Q2': 'There is no limit', 'Q3': 'The better I perform the higher my bonus will be.', 'Q4': 'No, the amount of cash at each node of the web may be different each time.'}",2284,,,,,,,,,,,,,,,,,
,survey-multi-choice,181807.0,0.0-1.0-1.0,,36656.0,"{""Q0"":""$-48 to $48"",""Q1"":""No, the cost is always $1.00."",""Q2"":""One time"",""Q3"":""The better I perform the higher my bonus will be."",""Q4"":""No, the amount of cash at each node of the web may be different each time.""}","{'Q0': '$-48 to $48', 'Q1': 'No, the cost is always $1.00.', 'Q2': 'There is no limit', 'Q3': 'The better I perform the higher my bonus will be.', 'Q4': 'No, the amount of cash at each node of the web may be different each time.'}",2327,,,,,,,,,,,,,,,,,
,survey-multi-choice,268807.0,0.0-1.1-1.1,,28080.0,"{""Q0"":""$-48 to $48"",""Q1"":""No, the cost is always $1.00."",""Q2"":""One time"",""Q3"":""The better I perform the higher my bonus will be."",""Q4"":""Yes.""}","{'Q0': '$-48 to $48', 'Q1': 'No, the cost is always $1.00.', 'Q2': 'There is no limit', 'Q3': 'The better I perform the higher my bonus will be.', 'Q4': 'No, the amount of cash at each node of the web may be different each time.'}",2327,,,,,,,,,,,,,,,,,
,survey-multi-choice,349987.0,0.0-1.2-1.2,,13136.0,"{""Q0"":""$-48 to $48"",""Q1"":""No, the cost is always $1.00."",""Q2"":""One time"",""Q3"":""The better I perform the higher my bonus will be."",""Q4"":""No, the structure of the web will be different each time.""}","{'Q0': '$-48 to $48', 'Q1': 'No, the cost is always $1.00.', 'Q2': 'There is no limit', 'Q3': 'The better I perform the higher my bonus will be.', 'Q4': 'No, the amount of cash at each node of the web may be different each time.'}",2327,,,,,,,,,,,,,,,,,
,survey-multi-choice,390695.0,0.0-1.3-1.3,,13546.0,"{""Q0"":""$-48 to $48"",""Q1"":""No, the cost is always $1.00."",""Q2"":""There is no limit"",""Q3"":""The better I perform the higher my bonus will be."",""Q4"":""No, the amount of cash at each node of the web may be different each time.""}","{'Q0': '$-48 to $48', 'Q1': 'No, the cost is always $1.00.', 'Q2': 'There is no limit', 'Q3': 'The better I perform the higher my bonus will be.', 'Q4': 'No, the amount of cash at each node of the web may be different each time.'}",2327,,,,,,,,,,,,,,,,,
,survey-multi-choice,154086.0,0.0-1.0-1.0,,36550.0,"{""Q0"":""$-48 to $48"",""Q1"":""No, the cost is always $1.00."",""Q2"":""One time"",""Q3"":""The better I perform the higher my bonus will be."",""Q4"":""No, the amount of cash at each node of the web may be different each time.""}","{'Q0': '$-48 to $48', 'Q1': 'No, the cost is always $1.00.', 'Q2': 'There is no limit', 'Q3': 'The better I perform the higher my bonus will be.', 'Q4': 'No, the amount of cash at each node of the web may be different each time.'}",2269,,,,,,,,,,,,,,,,,
,survey-multi-choice,353052.0,0.0-1.1-1.1,,147544.0,"{""Q0"":""$-48 to $48"",""Q1"":""No, the cost is always $1.00."",""Q2"":""One time"",""Q3"":""The better I perform the higher my bonus will be."",""Q4"":""No, the structure of the web will be different each time.""}","{'Q0': '$-48 to $48', 'Q1': 'No, the cost is always $1.00.', 'Q2': 'There is no limit', 'Q3': 'The better I perform the higher my bonus will be.', 'Q4': 'No, the amount of cash at each node of the web may be different each time.'}",2269,,,,,,,,,,,,,,,,,
,survey-multi-choice,215308.0,0.0-1.0-1.0,,106960.0,"{""Q0"":""$-48 to $48"",""Q1"":""No, the cost is always $1.00."",""Q2"":""One time"",""Q3"":""The better I perform the higher my bonus will be."",""Q4"":""Yes.""}","{'Q0': '$-48 to $48', 'Q1': 'No, the cost is always $1.00.', 'Q2': 'There is no limit', 'Q3': 'The better I perform the higher my bonus will be.', 'Q4': 'No, the amount of cash at each node of the web may be different each time.'}",2335,,,,,,,,,,,,,,,,,
,survey-multi-choice,91604.0,0.0-1.0-1.0,,31010.0,"{""Q0"":""$-48 to $48"",""Q1"":""Yes, but the cost for clicking on nodes varies."",""Q2"":""There is no limit"",""Q3"":""The better I perform the higher my bonus will be."",""Q4"":""Yes.""}","{'Q0': '$-48 to $48', 'Q1': 'No, the cost is always $1.00.', 'Q2': 'There is no limit', 'Q3': 'The better I perform the higher my bonus will be.', 'Q4': 'No, the amount of cash at each node of the web may be different each time.'}",2274,,,,,,,,,,,,,,,,,
,survey-multi-choice,1319052.0,0.0-1.1-1.1,,17273.0,"{""Q0"":""$-48 to $48"",""Q1"":""No, the cost is always $1.00."",""Q2"":""One time"",""Q3"":""The better I perform the higher my bonus will be."",""Q4"":""No, the structure of the web will be different each time.""}","{'Q0': '$-48 to $48', 'Q1': 'No, the cost is always $1.00.', 'Q2': 'There is no limit', 'Q3': 'The better I perform the higher my bonus will be.', 'Q4': 'No, the amount of cash at each node of the web may be different each time.'}",2274,,,,,,,,,,,,,,,,,
,survey-multi-choice,95112.0,0.0-1.0-1.0,,22476.0,"{""Q0"":""$-48 to $48"",""Q1"":""No, the cost is always $1.00."",""Q2"":""One time"",""Q3"":""I will receive a $1 bonus regardless of my performance."",""Q4"":""No, the amount of cash at each node of the web may be different each time.""}","{'Q0': '$-48 to $48', 'Q1': 'No, the cost is always $1.00.', 'Q2': 'There is no limit', 'Q3': 'The better I perform the higher my bonus will be.', 'Q4': 'No, the amount of cash at each node of the web may be different each time.'}",2343,,,,,,,,,,,,,,,,,
,survey-multi-choice,159315.0,0.0-1.1-1.1,,31657.0,"{""Q0"":""$-48 to $48"",""Q1"":""No, the cost is always $1.00."",""Q2"":""One time"",""Q3"":""I will receive a $1 bonus if I perform well, otherwise I will receive no bonus."",""Q4"":""No, the amount of cash at each node of the web may be different each time.""}","{'Q0': '$-48 to $48', 'Q1': 'No, the cost is always $1.00.', 'Q2': 'There is no limit', 'Q3': 'The better I perform the higher my bonus will be.', 'Q4': 'No, the amount of cash at each node of the web may be different each time.'}",2343,,,,,,,,,,,,,,,,,
,survey-multi-choice,200312.0,0.0-1.2-1.2,,17567.0,"{""Q0"":""$-48 to $48"",""Q1"":""No, the cost is always $1.00."",""Q2"":""One time"",""Q3"":""I will receive a $1 bonus regardless of my performance."",""Q4"":""No, the amount of cash at each node of the web may be different each time.""}","{'Q0': '$-48 to $48', 'Q1': 'No, the cost is always $1.00.', 'Q2': 'There is no limit', 'Q3': 'The better I perform the higher my bonus will be.', 'Q4': 'No, the amount of cash at each node of the web may be different each time.'}",2343,,,,,,,,,,,,,,,,,
,survey-multi-choice,168202.0,0.0-1.0-1.0,,33218,"{""Q0"":""$-48 to $48"",""Q1"":""No, the cost is always $1.00."",""Q2"":""One time"",""Q3"":""The better I perform the higher my bonus will be."",""Q4"":""No, the amount of cash at each node of the web may be different each time.""}","{'Q0': '$-48 to $48', 'Q1': 'No, the cost is always $1.00.', 'Q2': 'There is no limit', 'Q3': 'The better I perform the higher my bonus will be.', 'Q4': 'No, the amount of cash at each node of the web may be different each time.'}",2201,,,,,,,,,,,,,,,,,
,survey-multi-choice,255506.0,0.0-1.1-1.1,,33121,"{""Q0"":""$-48 to $48"",""Q1"":""No, the cost is always $1.00."",""Q2"":""There is no limit"",""Q3"":""The better I perform the higher my bonus will be."",""Q4"":""No, the amount of cash at each node of the web may be different each time.""}","{'Q0': '$-48 to $48', 'Q1': 'No, the cost is always $1.00.', 'Q2': 'There is no limit', 'Q3': 'The better I perform the higher my bonus will be.', 'Q4': 'No, the amount of cash at each node of the web may be different each time.'}",2201,,,,,,,,,,,,,,,,,
,survey-multi-choice,101524.0,0.0-1.0-1.0,,30618.0,"{""Q0"":""$-48 to $48"",""Q1"":""No, the cost is always $1.00."",""Q2"":""Three times"",""Q3"":""The better I perform the higher my bonus will be."",""Q4"":""No, the amount of cash at each node of the web may be different each time.""}","{'Q0': '$-48 to $48', 'Q1': 'No, the cost is always $1.00.', 'Q2': 'There is no limit', 'Q3': 'The better I perform the higher my bonus will be.', 'Q4': 'No, the amount of cash at each node of the web may be different each time.'}",2316,,,,,,,,,,,,,,,,,
,survey-multi-choice,110860.0,0.0-1.0-1.0,,29888.0,"{""Q0"":""$-48 to $48"",""Q1"":""No, the cost is always $1.00."",""Q2"":""One time"",""Q3"":""The better I perform the higher my bonus will be."",""Q4"":""No, the amount of cash at each node of the web may be different each time.""}","{'Q0': '$-48 to $48', 'Q1': 'No, the cost is always $1.00.', 'Q2': 'There is no limit', 'Q3': 'The better I perform the higher my bonus will be.', 'Q4': 'No, the amount of cash at each node of the web may be different each time.'}",2285,,,,,,,,,,,,,,,,,
,survey-multi-choice,129712.0,0.0-1.0-1.0,,35332.0,"{""Q0"":""$-10 to $10"",""Q1"":""No, the cost is always $1.00."",""Q2"":""One time"",""Q3"":""The better I perform the higher my bonus will be."",""Q4"":""No, the amount of cash at each node of the web may be different each time.""}","{'Q0': '$-48 to $48', 'Q1': 'No, the cost is always $1.00.', 'Q2': 'There is no limit', 'Q3': 'The better I perform the higher my bonus will be.', 'Q4': 'No, the amount of cash at each node of the web may be different each time.'}",2202,,,,,,,,,,,,,,,,,
,survey-multi-choice,174030.0,0.0-1.1-1.1,,17631.0,"{""Q0"":""$-48 to $48"",""Q1"":""No, the cost is always $1.00."",""Q2"":""One time"",""Q3"":""The better I perform the higher my bonus will be."",""Q4"":""No, the amount of cash at each node of the web may be different each time.""}","{'Q0': '$-48 to $48', 'Q1': 'No, the cost is always $1.00.', 'Q2': 'There is no limit', 'Q3': 'The better I perform the higher my bonus will be.', 'Q4': 'No, the amount of cash at each node of the web may be different each time.'}",2202,,,,,,,,,,,,,,,,,
,survey-multi-choice,206773.0,0.0-1.2-1.2,,19680.0,"{""Q0"":""$-48 to $48"",""Q1"":""No, the cost is always $1.00."",""Q2"":""One time"",""Q3"":""The better I perform the higher my bonus will be."",""Q4"":""No, the structure of the web will be different each time.""}","{'Q0': '$-48 to $48', 'Q1': 'No, the cost is always $1.00.', 'Q2': 'There is no limit', 'Q3': 'The better I perform the higher my bonus will be.', 'Q4': 'No, the amount of cash at each node of the web may be different each time.'}",2202,,,,,,,,,,,,,,,,,
,survey-multi-choice,165059.0,0.0-1.0-1.0,,37540.0,"{""Q0"":""$-10 to $10"",""Q1"":""No, the cost is always $1.00."",""Q2"":""One time"",""Q3"":""The better I perform the higher my bonus will be."",""Q4"":""No, the amount of cash at each node of the web may be different each time.""}","{'Q0': '$-48 to $48', 'Q1': 'No, the cost is always $1.00.', 'Q2': 'There is no limit', 'Q3': 'The better I perform the higher my bonus will be.', 'Q4': 'No, the amount of cash at each node of the web may be different each time.'}",2317,,,,,,,,,,,,,,,,,
,survey-multi-choice,249387.0,0.0-1.1-1.1,,22493.0,"{""Q0"":""$-48 to $48"",""Q1"":""No, the cost is always $1.00."",""Q2"":""One time"",""Q3"":""The better I perform the higher my bonus will be."",""Q4"":""No, the amount of cash at each node of the web may be different each time.""}","{'Q0': '$-48 to $48', 'Q1': 'No, the cost is always $1.00.', 'Q2': 'There is no limit', 'Q3': 'The better I perform the higher my bonus will be.', 'Q4': 'No, the amount of cash at each node of the web may be different each time.'}",2317,,,,,,,,,,,,,,,,,
,survey-multi-choice,200524.0,0.0-1.0-1.0,,38524.0,"{""Q0"":""$-48 to $48"",""Q1"":""No, the cost is always $1.00."",""Q2"":""One time"",""Q3"":""The better I perform the higher my bonus will be."",""Q4"":""No, the structure of the web will be different each time.""}","{'Q0': '$-48 to $48', 'Q1': 'No, the cost is always $1.00.', 'Q2': 'There is no limit', 'Q3': 'The better I perform the higher my bonus will be.', 'Q4': 'No, the amount of cash at each node of the web may be different each time.'}",2203,,,,,,,,,,,,,,,,,
,survey-multi-choice,281122.0,0.0-1.1-1.1,,19406.0,"{""Q0"":""$-48 to $48"",""Q1"":""No, the cost is always $1.00."",""Q2"":""One time"",""Q3"":""The better I perform the higher my bonus will be."",""Q4"":""No, the amount of cash at each node of the web may be different each time.""}","{'Q0': '$-48 to $48', 'Q1': 'No, the cost is always $1.00.', 'Q2': 'There is no limit', 'Q3': 'The better I perform the higher my bonus will be.', 'Q4': 'No, the amount of cash at each node of the web may be different each time.'}",2203,,,,,,,,,,,,,,,,,
,survey-multi-choice,228456.0,0.0-1.0-1.0,,91896,"{""Q0"":""$-48 to $48"",""Q1"":""No, the cost is always $1.00."",""Q2"":""One time"",""Q3"":""The better I perform the higher my bonus will be."",""Q4"":""No, the amount of cash at each node of the web may be different each time.""}","{'Q0': '$-48 to $48', 'Q1': 'No, the cost is always $1.00.', 'Q2': 'There is no limit', 'Q3': 'The better I perform the higher my bonus will be.', 'Q4': 'No, the amount of cash at each node of the web may be different each time.'}",2345,,,,,,,,,,,,,,,,,
,survey-multi-choice,285460.0,0.0-1.1-1.1,,26896,"{""Q0"":""$-48 to $48"",""Q1"":""No, the cost is always $1.00."",""Q2"":""There is no limit"",""Q3"":""The better I perform the higher my bonus will be."",""Q4"":""No, the amount of cash at each node of the web may be different each time.""}","{'Q0': '$-48 to $48', 'Q1': 'No, the cost is always $1.00.', 'Q2': 'There is no limit', 'Q3': 'The better I perform the higher my bonus will be.', 'Q4': 'No, the amount of cash at each node of the web may be different each time.'}",2345,,,,,,,,,,,,,,,,,
,survey-multi-choice,307593.0,0.0-1.0-1.0,,58071,"{""Q0"":""$0 to $50"",""Q1"":""No, the cost is always $1.00."",""Q2"":""One time"",""Q3"":""The better I perform the higher my bonus will be."",""Q4"":""No, the amount of cash at each node of the web may be different each time.""}","{'Q0': '$-48 to $48', 'Q1': 'No, the cost is always $1.00.', 'Q2': 'There is no limit', 'Q3': 'The better I perform the higher my bonus will be.', 'Q4': 'No, the amount of cash at each node of the web may be different each time.'}",2329,,,,,,,,,,,,,,,,,
,survey-multi-choice,375258.0,0.0-1.1-1.1,,25083,"{""Q0"":""$-48 to $48"",""Q1"":""No, the cost is always $1.00."",""Q2"":""One time"",""Q3"":""The better I perform the higher my bonus will be."",""Q4"":""No, the amount of cash at each node of the web may be different each time.""}","{'Q0': '$-48 to $48', 'Q1': 'No, the cost is always $1.00.', 'Q2': 'There is no limit', 'Q3': 'The better I perform the higher my bonus will be.', 'Q4': 'No, the amount of cash at each node of the web may be different each time.'}",2329,,,,,,,,,,,,,,,,,
,survey-multi-choice,443727.0,0.0-1.2-1.2,,23003,"{""Q0"":""$-48 to $48"",""Q1"":""No, the cost is always $1.00."",""Q2"":""One time"",""Q3"":""The better I perform the higher my bonus will be."",""Q4"":""No, the structure of the web will be different each time.""}","{'Q0': '$-48 to $48', 'Q1': 'No, the cost is always $1.00.', 'Q2': 'There is no limit', 'Q3': 'The better I perform the higher my bonus will be.', 'Q4': 'No, the amount of cash at each node of the web may be different each time.'}",2329,,,,,,,,,,,,,,,,,
,survey-multi-choice,596441.0,0.0-1.3-1.3,,40768,"{""Q0"":""$-48 to $48"",""Q1"":""No, the cost is always $1.00."",""Q2"":""One time"",""Q3"":""The better I perform the higher my bonus will be."",""Q4"":""No, the amount of cash at each node of the web may be different each time.""}","{'Q0': '$-48 to $48', 'Q1': 'No, the cost is always $1.00.', 'Q2': 'There is no limit', 'Q3': 'The better I perform the higher my bonus will be.', 'Q4': 'No, the amount of cash at each node of the web may be different each time.'}",2329,,,,,,,,,,,,,,,,,
,survey-multi-choice,458482.0,0.0-1.0-1.0,,20660.0,"{""Q0"":""$-48 to $48"",""Q1"":""No, the cost is always $1.00."",""Q2"":""One time"",""Q3"":""The better I perform the higher my bonus will be."",""Q4"":""No, the amount of cash at each node of the web may be different each time.""}","{'Q0': '$-48 to $48', 'Q1': 'No, the cost is always $1.00.', 'Q2': 'There is no limit', 'Q3': 'The better I perform the higher my bonus will be.', 'Q4': 'No, the amount of cash at each node of the web may be different each time.'}",2346,,,,,,,,,,,,,,,,,
,survey-multi-choice,148994.0,0.0-1.0-1.0,,25284.0,"{""Q0"":""$-48 to $48"",""Q1"":""No, the cost is always $1.00."",""Q2"":""One time"",""Q3"":""The better I perform the higher my bonus will be."",""Q4"":""Yes.""}","{'Q0': '$-48 to $48', 'Q1': 'No, the cost is always $1.00.', 'Q2': 'There is no limit', 'Q3': 'The better I perform the higher my bonus will be.', 'Q4': 'No, the amount of cash at each node of the web may be different each time.'}",2319,,,,,,,,,,,,,,,,,
,survey-multi-choice,205313.0,0.0-1.1-1.1,,31648.0,"{""Q0"":""$-48 to $48"",""Q1"":""No, the cost is always $1.00."",""Q2"":""One time"",""Q3"":""The better I perform the higher my bonus will be."",""Q4"":""No, the structure of the web will be different each time.""}","{'Q0': '$-48 to $48', 'Q1': 'No, the cost is always $1.00.', 'Q2': 'There is no limit', 'Q3': 'The better I perform the higher my bonus will be.', 'Q4': 'No, the amount of cash at each node of the web may be different each time.'}",2319,,,,,,,,,,,,,,,,,
,survey-multi-choice,252161.0,0.0-1.2-1.2,,18483.0,"{""Q0"":""$-48 to $48"",""Q1"":""No, the cost is always $1.00."",""Q2"":""One time"",""Q3"":""The better I perform the higher my bonus will be."",""Q4"":""No, the amount of cash at each node of the web may be different each time.""}","{'Q0': '$-48 to $48', 'Q1': 'No, the cost is always $1.00.', 'Q2': 'There is no limit', 'Q3': 'The better I perform the higher my bonus will be.', 'Q4': 'No, the amount of cash at each node of the web may be different each time.'}",2319,,,,,,,,,,,,,,,,,
,survey-multi-choice,177072.0,0.0-1.0-1.0,,54473.0,"{""Q0"":""$-10 to $10"",""Q1"":""No, the cost is always $1.00."",""Q2"":""One time"",""Q3"":""The better I perform the higher my bonus will be."",""Q4"":""No, the amount of cash at each node of the web may be different each time.""}","{'Q0': '$-48 to $48', 'Q1': 'No, the cost is always $1.00.', 'Q2': 'There is no limit', 'Q3': 'The better I perform the higher my bonus will be.', 'Q4': 'No, the amount of cash at each node of the web may be different each time.'}",2330,,,,,,,,,,,,,,,,,
,survey-multi-choice,323117.0,0.0-1.1-1.1,,34970.0,"{""Q0"":""$-48 to $48"",""Q1"":""No, the cost is always $1.00."",""Q2"":""One time"",""Q3"":""The better I perform the higher my bonus will be."",""Q4"":""No, the amount of cash at each node of the web may be different each time.""}","{'Q0': '$-48 to $48', 'Q1': 'No, the cost is always $1.00.', 'Q2': 'There is no limit', 'Q3': 'The better I perform the higher my bonus will be.', 'Q4': 'No, the amount of cash at each node of the web may be different each time.'}",2330,,,,,,,,,,,,,,,,,
,survey-multi-choice,416047.0,0.0-1.2-1.2,,39981.0,"{""Q0"":""$-48 to $48"",""Q1"":""No, the cost is always $1.00."",""Q2"":""One time"",""Q3"":""The better I perform the higher my bonus will be."",""Q4"":""No, the amount of cash at each node of the web may be different each time.""}","{'Q0': '$-48 to $48', 'Q1': 'No, the cost is always $1.00.', 'Q2': 'There is no limit', 'Q3': 'The better I perform the higher my bonus will be.', 'Q4': 'No, the amount of cash at each node of the web may be different each time.'}",2330,,,,,,,,,,,,,,,,,
,survey-multi-choice,24563.0,0.0-1.0-1.0,,11642.0,"{""Q0"":""$-10 to $10"",""Q1"":""No, the cost is always $1.00."",""Q2"":""Three times"",""Q3"":""No."",""Q4"":""No, the amount of cash at each node of the web may be different each time.""}","{'Q0': '$-48 to $48', 'Q1': 'No, the cost is always $1.00.', 'Q2': 'There is no limit', 'Q3': 'The better I perform the higher my bonus will be.', 'Q4': 'No, the amount of cash at each node of the web may be different each time.'}",2205,,,,,,,,,,,,,,,,,
,survey-multi-choice,92073.0,0.0-1.0-1.0,,20180.0,"{""Q0"":""$-48 to $48"",""Q1"":""No, the cost is always $1.00."",""Q2"":""One time"",""Q3"":""The better I perform the higher my bonus will be."",""Q4"":""No, the structure of the web will be different each time.""}","{'Q0': '$-48 to $48', 'Q1': 'No, the cost is always $1.00.', 'Q2': 'There is no limit', 'Q3': 'The better I perform the higher my bonus will be.', 'Q4': 'No, the amount of cash at each node of the web may be different each time.'}",2206,,,,,,,,,,,,,,,,,
,survey-multi-choice,140804.0,0.0-1.1-1.1,,10968.0,"{""Q0"":""$-48 to $48"",""Q1"":""No, the cost is always $1.00."",""Q2"":""One time"",""Q3"":""The better I perform the higher my bonus will be."",""Q4"":""No, the amount of cash at each node of the web may be different each time.""}","{'Q0': '$-48 to $48', 'Q1': 'No, the cost is always $1.00.', 'Q2': 'There is no limit', 'Q3': 'The better I perform the higher my bonus will be.', 'Q4': 'No, the amount of cash at each node of the web may be different each time.'}",2206,,,,,,,,,,,,,,,,,
,survey-multi-choice,168682.0,0.0-1.2-1.2,,13050.0,"{""Q0"":""$-48 to $48"",""Q1"":""No, the cost is always $1.00."",""Q2"":""One time"",""Q3"":""I will receive a $1 bonus if I perform well, otherwise I will receive no bonus."",""Q4"":""No, the amount of cash at each node of the web may be different each time.""}","{'Q0': '$-48 to $48', 'Q1': 'No, the cost is always $1.00.', 'Q2': 'There is no limit', 'Q3': 'The better I perform the higher my bonus will be.', 'Q4': 'No, the amount of cash at each node of the web may be different each time.'}",2206,,,,,,,,,,,,,,,,,
,survey-multi-choice,53586.0,0.0-1.0-1.0,,32690.0,"{""Q0"":""$-48 to $48"",""Q1"":""Yes, but the cost for clicking on nodes varies."",""Q2"":""Three times"",""Q3"":""I will receive a $1 bonus regardless of my performance."",""Q4"":""Yes.""}","{'Q0': '$-48 to $48', 'Q1': 'No, the cost is always $1.00.', 'Q2': 'There is no limit', 'Q3': 'The better I perform the higher my bonus will be.', 'Q4': 'No, the amount of cash at each node of the web may be different each time.'}",2341,,,,,,,,,,,,,,,,,
,survey-multi-choice,405370.0,0.0-1.1-1.1,,244621.0,"{""Q0"":""$-48 to $48"",""Q1"":""Yes, but the cost for clicking on nodes varies."",""Q2"":""There is no limit"",""Q3"":""I will receive a $1 bonus regardless of my performance."",""Q4"":""Yes.""}","{'Q0': '$-48 to $48', 'Q1': 'No, the cost is always $1.00.', 'Q2': 'There is no limit', 'Q3': 'The better I perform the higher my bonus will be.', 'Q4': 'No, the amount of cash at each node of the web may be different each time.'}",2341,,,,,,,,,,,,,,,,,
,survey-multi-choice,46520.0,0.0-1.0-1.0,,26315.0,"{""Q0"":""$-48 to $48"",""Q1"":""Yes, but the cost for clicking on nodes varies."",""Q2"":""Five times"",""Q3"":""The better I perform the higher my bonus will be."",""Q4"":""No, the amount of cash at each node of the web may be different each time.""}","{'Q0': '$-48 to $48', 'Q1': 'No, the cost is always $1.00.', 'Q2': 'There is no limit', 'Q3': 'The better I perform the higher my bonus will be.', 'Q4': 'No, the amount of cash at each node of the web may be different each time.'}",2270,,,,,,,,,,,,,,,,,
,survey-multi-choice,79131.0,0.0-1.1-1.1,,20338.0,"{""Q0"":""$-48 to $48"",""Q1"":""Yes, but the cost for clicking on nodes varies."",""Q2"":""Five times"",""Q3"":""The better I perform the higher my bonus will be."",""Q4"":""No, the amount of cash at each node of the web may be different each time.""}","{'Q0': '$-48 to $48', 'Q1': 'No, the cost is always $1.00.', 'Q2': 'There is no limit', 'Q3': 'The better I perform the higher my bonus will be.', 'Q4': 'No, the amount of cash at each node of the web may be different each time.'}",2270,,,,,,,,,,,,,,,,,
,survey-multi-choice,166132.0,0.0-1.0-1.0,,34647.0,"{""Q0"":""$0 to $50"",""Q1"":""No, the cost is always $1.00."",""Q2"":""One time"",""Q3"":""The better I perform the higher my bonus will be."",""Q4"":""No, the amount of cash at each node of the web may be different each time.""}","{'Q0': '$-48 to $48', 'Q1': 'No, the cost is always $1.00.', 'Q2': 'There is no limit', 'Q3': 'The better I perform the higher my bonus will be.', 'Q4': 'No, the amount of cash at each node of the web may be different each time.'}",2207,,,,,,,,,,,,,,,,,
,survey-multi-choice,293456.0,0.0-1.1-1.1,,47023.0,"{""Q0"":""$0 to $50"",""Q1"":""No, the cost is always $1.00."",""Q2"":""One time"",""Q3"":""The better I perform the higher my bonus will be."",""Q4"":""No, the amount of cash at each node of the web may be different each time.""}","{'Q0': '$-48 to $48', 'Q1': 'No, the cost is always $1.00.', 'Q2': 'There is no limit', 'Q3': 'The better I perform the higher my bonus will be.', 'Q4': 'No, the amount of cash at each node of the web may be different each time.'}",2207,,,,,,,,,,,,,,,,,
,survey-multi-choice,432792.0,0.0-1.2-1.2,,42537.0,"{""Q0"":""$0 to $50"",""Q1"":""No, the cost is always $1.00."",""Q2"":""There is no limit"",""Q3"":""The better I perform the higher my bonus will be."",""Q4"":""No, the amount of cash at each node of the web may be different each time.""}","{'Q0': '$-48 to $48', 'Q1': 'No, the cost is always $1.00.', 'Q2': 'There is no limit', 'Q3': 'The better I perform the higher my bonus will be.', 'Q4': 'No, the amount of cash at each node of the web may be different each time.'}",2207,,,,,,,,,,,,,,,,,
,survey-multi-choice,502921.0,0.0-1.3-1.3,,24797.0,"{""Q0"":""$-48 to $48"",""Q1"":""No, the cost is always $1.00."",""Q2"":""There is no limit"",""Q3"":""The better I perform the higher my bonus will be."",""Q4"":""No, the amount of cash at each node of the web may be different each time.""}","{'Q0': '$-48 to $48', 'Q1': 'No, the cost is always $1.00.', 'Q2': 'There is no limit', 'Q3': 'The better I perform the higher my bonus will be.', 'Q4': 'No, the amount of cash at each node of the web may be different each time.'}",2207,,,,,,,,,,,,,,,,,
,survey-multi-choice,169199.0,0.0-1.0-1.0,,35581.0,"{""Q0"":""$-48 to $48"",""Q1"":""No, the cost is always $1.00."",""Q2"":""One time"",""Q3"":""The better I perform the higher my bonus will be."",""Q4"":""No, the structure of the web will be different each time.""}","{'Q0': '$-48 to $48', 'Q1': 'No, the cost is always $1.00.', 'Q2': 'There is no limit', 'Q3': 'The better I perform the higher my bonus will be.', 'Q4': 'No, the amount of cash at each node of the web may be different each time.'}",2208,,,,,,,,,,,,,,,,,
,survey-multi-choice,257774.0,0.0-1.1-1.1,,31100.0,"{""Q0"":""$-48 to $48"",""Q1"":""No, the cost is always $1.00."",""Q2"":""One time"",""Q3"":""The better I perform the higher my bonus will be."",""Q4"":""No, the amount of cash at each node of the web may be different each time.""}","{'Q0': '$-48 to $48', 'Q1': 'No, the cost is always $1.00.', 'Q2': 'There is no limit', 'Q3': 'The better I perform the higher my bonus will be.', 'Q4': 'No, the amount of cash at each node of the web may be different each time.'}",2208,,,,,,,,,,,,,,,,,
,survey-multi-choice,62115.0,0.0-1.0-1.0,,28323,"{""Q0"":""$-48 to $48"",""Q1"":""No, the cost is always $1.00."",""Q2"":""There is no limit"",""Q3"":""The better I perform the higher my bonus will be."",""Q4"":""No, the amount of cash at each node of the web may be different each time.""}","{'Q0': '$-48 to $48', 'Q1': 'No, the cost is always $1.00.', 'Q2': 'There is no limit', 'Q3': 'The better I perform the higher my bonus will be.', 'Q4': 'No, the amount of cash at each node of the web may be different each time.'}",2339,,,,,,,,,,,,,,,,,
,survey-multi-choice,574767.0,0.0-3.0-3.0,,17706,"{""Q0"":""$-4 to $4"",""Q1"":""$-8 to $8"",""Q2"":""$-48 to $48"",""Q3"":""No, the cost is always $1.00."",""Q4"":""Very motivated""}",,2339,,,,,,,,,,,,,,,,,
,survey-multi-choice,70217.0,0.0-1.0-1.0,,26009,"{""Q0"":""$-48 to $48"",""Q1"":""No, the cost is always $1.00."",""Q2"":""There is no limit"",""Q3"":""The better I perform the higher my bonus will be."",""Q4"":""No, the amount of cash at each node of the web may be different each time.""}","{'Q0': '$-48 to $48', 'Q1': 'No, the cost is always $1.00.', 'Q2': 'There is no limit', 'Q3': 'The better I perform the higher my bonus will be.', 'Q4': 'No, the amount of cash at each node of the web may be different each time.'}",2336,,,,,,,,,,,,,,,,,
,survey-multi-choice,640902.0,0.0-3.0-3.0,,31701,"{""Q0"":""$-48 to $48"",""Q1"":""$-4 to $4"",""Q2"":""$-8 to $8"",""Q3"":""No, the cost is always $1.00."",""Q4"":""Very motivated""}",,2336,,,,,,,,,,,,,,,,,
,survey-multi-choice,151165.0,0.0-1.0-1.0,,30986,"{""Q0"":""$-48 to $48"",""Q1"":""No, the cost is always $1.00."",""Q2"":""There is no limit"",""Q3"":""The better I perform the higher my bonus will be."",""Q4"":""No, the amount of cash at each node of the web may be different each time.""}","{'Q0': '$-48 to $48', 'Q1': 'No, the cost is always $1.00.', 'Q2': 'There is no limit', 'Q3': 'The better I perform the higher my bonus will be.', 'Q4': 'No, the amount of cash at each node of the web may be different each time.'}",2271,,,,,,,,,,,,,,,,,
,survey-multi-choice,737308.0,0.0-3.0-3.0,,39739,"{""Q0"":""$-4 to $4"",""Q1"":""$-8 to $8"",""Q2"":""$-48 to $48"",""Q3"":""No, the cost is always $1.00."",""Q4"":""Very unmotivated""}",,2271,,,,,,,,,,,,,,,,,
,survey-multi-choice,149656.0,0.0-1.0-1.0,,26222,"{""Q0"":""$-48 to $48"",""Q1"":""No, the cost is always $1.00."",""Q2"":""There is no limit"",""Q3"":""The better I perform the higher my bonus will be."",""Q4"":""No, the structure of the web will be different each time.""}","{'Q0': '$-48 to $48', 'Q1': 'No, the cost is always $1.00.', 'Q2': 'There is no limit', 'Q3': 'The better I perform the higher my bonus will be.', 'Q4': 'No, the amount of cash at each node of the web may be different each time.'}",2221,,,,,,,,,,,,,,,,,
,survey-multi-choice,205239.0,0.0-1.1-1.1,,18500,"{""Q0"":""$-48 to $48"",""Q1"":""No, the cost is always $1.00."",""Q2"":""One time"",""Q3"":""The better I perform the higher my bonus will be."",""Q4"":""No, the structure of the web will be different each time.""}","{'Q0': '$-48 to $48', 'Q1': 'No, the cost is always $1.00.', 'Q2': 'There is no limit', 'Q3': 'The better I perform the higher my bonus will be.', 'Q4': 'No, the amount of cash at each node of the web may be different each time.'}",2221,,,,,,,,,,,,,,,,,
,survey-multi-choice,274912.0,0.0-1.2-1.2,,50480,"{""Q0"":""$-48 to $48"",""Q1"":""No, the cost is always $1.00."",""Q2"":""There is no limit"",""Q3"":""The better I perform the higher my bonus will be."",""Q4"":""No, the amount of cash at each node of the web may be different each time.""}","{'Q0': '$-48 to $48', 'Q1': 'No, the cost is always $1.00.', 'Q2': 'There is no limit', 'Q3': 'The better I perform the higher my bonus will be.', 'Q4': 'No, the amount of cash at each node of the web may be different each time.'}",2221,,,,,,,,,,,,,,,,,
,survey-multi-choice,768394.0,0.0-3.0-3.0,,14532,"{""Q0"":""$-4 to $4"",""Q1"":""$-8 to $8"",""Q2"":""$-48 to $48"",""Q3"":""No, the cost is always $1.00."",""Q4"":""Very motivated""}",,2221,,,,,,,,,,,,,,,,,
,survey-multi-choice,102853.0,0.0-1.0-1.0,,25821,"{""Q0"":""$-48 to $48"",""Q1"":""No, the cost is always $1.00."",""Q2"":""There is no limit"",""Q3"":""The better I perform the higher my bonus will be."",""Q4"":""No, the amount of cash at each node of the web may be different each time.""}","{'Q0': '$-48 to $48', 'Q1': 'No, the cost is always $1.00.', 'Q2': 'There is no limit', 'Q3': 'The better I perform the higher my bonus will be.', 'Q4': 'No, the amount of cash at each node of the web may be different each time.'}",2210,,,,,,,,,,,,,,,,,
,survey-multi-choice,622373.0,0.0-3.0-3.0,,21479,"{""Q0"":""$-4 to $4"",""Q1"":""$-4 to $4"",""Q2"":""$-48 to $48"",""Q3"":""No, the cost is always $1.00."",""Q4"":""Very motivated""}",,2210,,,,,,,,,,,,,,,,,
,survey-multi-choice,160810.0,0.0-1.0-1.0,,37066,"{""Q0"":""$-48 to $48"",""Q1"":""No, the cost is always $1.00."",""Q2"":""There is no limit"",""Q3"":""The better I perform the higher my bonus will be."",""Q4"":""No, the amount of cash at each node of the web may be different each time.""}","{'Q0': '$-48 to $48', 'Q1': 'No, the cost is always $1.00.', 'Q2': 'There is no limit', 'Q3': 'The better I perform the higher my bonus will be.', 'Q4': 'No, the amount of cash at each node of the web may be different each time.'}",2347,,,,,,,,,,,,,,,,,
,survey-multi-choice,639527.0,0.0-3.0-3.0,,36088,"{""Q0"":""$-4 to $4"",""Q1"":""$-8 to $8"",""Q2"":""$-48 to $48"",""Q3"":""No, the cost is always $1.00."",""Q4"":""Slightly motivated""}",,2347,,,,,,,,,,,,,,,,,
,survey-multi-choice,115265.0,0.0-1.0-1.0,,28949,"{""Q0"":""$-48 to $48"",""Q1"":""No, the cost is always $1.00."",""Q2"":""One time"",""Q3"":""The better I perform the higher my bonus will be."",""Q4"":""No, the amount of cash at each node of the web may be different each time.""}","{'Q0': '$-48 to $48', 'Q1': 'No, the cost is always $1.00.', 'Q2': 'There is no limit', 'Q3': 'The better I perform the higher my bonus will be.', 'Q4': 'No, the amount of cash at each node of the web may be different each time.'}",2272,,,,,,,,,,,,,,,,,
,survey-multi-choice,172239.0,0.0-1.1-1.1,,24630,"{""Q0"":""$-48 to $48"",""Q1"":""No, the cost is always $1.00."",""Q2"":""There is no limit"",""Q3"":""The better I perform the higher my bonus will be."",""Q4"":""No, the amount of cash at each node of the web may be different each time.""}","{'Q0': '$-48 to $48', 'Q1': 'No, the cost is always $1.00.', 'Q2': 'There is no limit', 'Q3': 'The better I perform the higher my bonus will be.', 'Q4': 'No, the amount of cash at each node of the web may be different each time.'}",2272,,,,,,,,,,,,,,,,,
,survey-multi-choice,815009.0,0.0-3.0-3.0,,40394,"{""Q0"":""$-4 to $4"",""Q1"":""$-8 to $8"",""Q2"":""$-48 to $48"",""Q3"":""No, the cost is always $1.00."",""Q4"":""Very motivated""}",,2272,,,,,,,,,,,,,,,,,
,survey-multi-choice,78041.0,0.0-1.0-1.0,,16146.0,"{""Q0"":""$-48 to $48"",""Q1"":""No, the cost is always $1.00."",""Q2"":""One time"",""Q3"":""The better I perform the higher my bonus will be."",""Q4"":""No, the structure of the web will be different each time.""}","{'Q0': '$-48 to $48', 'Q1': 'No, the cost is always $1.00.', 'Q2': 'There is no limit', 'Q3': 'The better I perform the higher my bonus will be.', 'Q4': 'No, the amount of cash at each node of the web may be different each time.'}",2222,,,,,,,,,,,,,,,,,
,survey-multi-choice,115801.0,0.0-1.1-1.1,,12892.0,"{""Q0"":""$-48 to $48"",""Q1"":""No, the cost is always $1.00."",""Q2"":""One time"",""Q3"":""The better I perform the higher my bonus will be."",""Q4"":""No, the amount of cash at each node of the web may be different each time.""}","{'Q0': '$-48 to $48', 'Q1': 'No, the cost is always $1.00.', 'Q2': 'There is no limit', 'Q3': 'The better I perform the higher my bonus will be.', 'Q4': 'No, the amount of cash at each node of the web may be different each time.'}",2222,,,,,,,,,,,,,,,,,
,survey-multi-choice,250018.0,0.0-1.2-1.2,,81083.0,"{""Q0"":""$-48 to $48"",""Q1"":""No, the cost is always $1.00."",""Q2"":""One time"",""Q3"":""The better I perform the higher my bonus will be."",""Q4"":""No, the amount of cash at each node of the web may be different each time.""}","{'Q0': '$-48 to $48', 'Q1': 'No, the cost is always $1.00.', 'Q2': 'There is no limit', 'Q3': 'The better I perform the higher my bonus will be.', 'Q4': 'No, the amount of cash at each node of the web may be different each time.'}",2222,,,,,,,,,,,,,,,,,
,survey-multi-choice,510209.0,0.0-1.3-1.3,,203801.0,"{""Q0"":""$-100 to $100"",""Q1"":""No, the cost is always $1.00."",""Q2"":""One time"",""Q3"":""The better I perform the higher my bonus will be."",""Q4"":""No, the amount of cash at each node of the web may be different each time.""}","{'Q0': '$-48 to $48', 'Q1': 'No, the cost is always $1.00.', 'Q2': 'There is no limit', 'Q3': 'The better I perform the higher my bonus will be.', 'Q4': 'No, the amount of cash at each node of the web may be different each time.'}",2222,,,,,,,,,,,,,,,,,
,survey-multi-choice,139017.0,0.0-1.0-1.0,,19803,"{""Q0"":""$-48 to $48"",""Q1"":""No, the cost is always $1.00."",""Q2"":""One time"",""Q3"":""The better I perform the higher my bonus will be."",""Q4"":""No, the amount of cash at each node of the web may be different each time.""}","{'Q0': '$-48 to $48', 'Q1': 'No, the cost is always $1.00.', 'Q2': 'There is no limit', 'Q3': 'The better I perform the higher my bonus will be.', 'Q4': 'No, the amount of cash at each node of the web may be different each time.'}",2223,,,,,,,,,,,,,,,,,
,survey-multi-choice,187963.0,0.0-1.1-1.1,,16094,"{""Q0"":""$-48 to $48"",""Q1"":""No, the cost is always $1.00."",""Q2"":""There is no limit"",""Q3"":""The better I perform the higher my bonus will be."",""Q4"":""No, the amount of cash at each node of the web may be different each time.""}","{'Q0': '$-48 to $48', 'Q1': 'No, the cost is always $1.00.', 'Q2': 'There is no limit', 'Q3': 'The better I perform the higher my bonus will be.', 'Q4': 'No, the amount of cash at each node of the web may be different each time.'}",2223,,,,,,,,,,,,,,,,,
,survey-multi-choice,756279.0,0.0-3.0-3.0,,28897,"{""Q0"":""$-4 to $4"",""Q1"":""$-8 to $8"",""Q2"":""$-48 to $48"",""Q3"":""No, the cost is always $1.00."",""Q4"":""Very motivated""}",,2223,,,,,,,,,,,,,,,,,
,survey-multi-choice,220761.0,0.0-1.0-1.0,,40910,"{""Q0"":""$-48 to $48"",""Q1"":""No, the cost is always $1.00."",""Q2"":""There is no limit"",""Q3"":""The better I perform the higher my bonus will be."",""Q4"":""No, the amount of cash at each node of the web may be different each time.""}","{'Q0': '$-48 to $48', 'Q1': 'No, the cost is always $1.00.', 'Q2': 'There is no limit', 'Q3': 'The better I perform the higher my bonus will be.', 'Q4': 'No, the amount of cash at each node of the web may be different each time.'}",2224,,,,,,,,,,,,,,,,,
,survey-multi-choice,784074.0,0.0-3.0-3.0,,47306,"{""Q0"":""$-4 to $4"",""Q1"":""$-8 to $8"",""Q2"":""$-48 to $48"",""Q3"":""No, the cost is always $1.00."",""Q4"":""Very motivated""}",,2224,,,,,,,,,,,,,,,,,
,survey-multi-choice,125267.0,0.0-1.0-1.0,,33194,"{""Q0"":""$-48 to $48"",""Q1"":""No, the cost is always $1.00."",""Q2"":""Three times"",""Q3"":""The better I perform the higher my bonus will be."",""Q4"":""No, the structure of the web will be different each time.""}","{'Q0': '$-48 to $48', 'Q1': 'No, the cost is always $1.00.', 'Q2': 'There is no limit', 'Q3': 'The better I perform the higher my bonus will be.', 'Q4': 'No, the amount of cash at each node of the web may be different each time.'}",2360,,,,,,,,,,,,,,,,,
,survey-multi-choice,193716.0,0.0-1.1-1.1,,13783,"{""Q0"":""$-48 to $48"",""Q1"":""No, the cost is always $1.00."",""Q2"":""One time"",""Q3"":""The better I perform the higher my bonus will be."",""Q4"":""No, the amount of cash at each node of the web may be different each time.""}","{'Q0': '$-48 to $48', 'Q1': 'No, the cost is always $1.00.', 'Q2': 'There is no limit', 'Q3': 'The better I perform the higher my bonus will be.', 'Q4': 'No, the amount of cash at each node of the web may be different each time.'}",2360,,,,,,,,,,,,,,,,,
,survey-multi-choice,265862.0,0.0-1.2-1.2,,31099,"{""Q0"":""$-48 to $48"",""Q1"":""There is no cost for clicking on nodes."",""Q2"":""One time"",""Q3"":""The better I perform the higher my bonus will be."",""Q4"":""No, the amount of cash at each node of the web may be different each time.""}","{'Q0': '$-48 to $48', 'Q1': 'No, the cost is always $1.00.', 'Q2': 'There is no limit', 'Q3': 'The better I perform the higher my bonus will be.', 'Q4': 'No, the amount of cash at each node of the web may be different each time.'}",2360,,,,,,,,,,,,,,,,,
,survey-multi-choice,407178.0,0.0-1.3-1.3,,54553,"{""Q0"":""$-48 to $48"",""Q1"":""No, the cost is always $1.00."",""Q2"":""One time"",""Q3"":""The better I perform the higher my bonus will be."",""Q4"":""No, the amount of cash at each node of the web may be different each time.""}","{'Q0': '$-48 to $48', 'Q1': 'No, the cost is always $1.00.', 'Q2': 'There is no limit', 'Q3': 'The better I perform the higher my bonus will be.', 'Q4': 'No, the amount of cash at each node of the web may be different each time.'}",2360,,,,,,,,,,,,,,,,,
,survey-multi-choice,856211.0,0.0-3.0-3.0,,18467,"{""Q0"":""$-4 to $4"",""Q1"":""$-8 to $8"",""Q2"":""$-48 to $48"",""Q3"":""No, the cost is always $1.00."",""Q4"":""Very motivated""}",,2360,,,,,,,,,,,,,,,,,
,survey-multi-choice,133282.0,0.0-1.0-1.0,,41193,"{""Q0"":""$-48 to $48"",""Q1"":""No, the cost is always $1.00."",""Q2"":""One time"",""Q3"":""The better I perform the higher my bonus will be."",""Q4"":""No, the amount of cash at each node of the web may be different each time.""}","{'Q0': '$-48 to $48', 'Q1': 'No, the cost is always $1.00.', 'Q2': 'There is no limit', 'Q3': 'The better I perform the higher my bonus will be.', 'Q4': 'No, the amount of cash at each node of the web may be different each time.'}",2348,,,,,,,,,,,,,,,,,
,survey-multi-choice,250214.0,0.0-1.1-1.1,,21575,"{""Q0"":""$-48 to $48"",""Q1"":""No, the cost is always $1.00."",""Q2"":""There is no limit"",""Q3"":""The better I perform the higher my bonus will be."",""Q4"":""No, the amount of cash at each node of the web may be different each time.""}","{'Q0': '$-48 to $48', 'Q1': 'No, the cost is always $1.00.', 'Q2': 'There is no limit', 'Q3': 'The better I perform the higher my bonus will be.', 'Q4': 'No, the amount of cash at each node of the web may be different each time.'}",2348,,,,,,,,,,,,,,,,,
,survey-multi-choice,890974.0,0.0-3.0-3.0,,23276,"{""Q0"":""$-4 to $4"",""Q1"":""$-8 to $8"",""Q2"":""$-48 to $48"",""Q3"":""No, the cost is always $1.00."",""Q4"":""Very motivated""}",,2348,,,,,,,,,,,,,,,,,
,survey-multi-choice,128401.0,0.0-1.0-1.0,,28184,"{""Q0"":""$-48 to $48"",""Q1"":""No, the cost is always $1.00."",""Q2"":""One time"",""Q3"":""The better I perform the higher my bonus will be."",""Q4"":""Yes.""}","{'Q0': '$-48 to $48', 'Q1': 'No, the cost is always $1.00.', 'Q2': 'There is no limit', 'Q3': 'The better I perform the higher my bonus will be.', 'Q4': 'No, the amount of cash at each node of the web may be different each time.'}",2273,,,,,,,,,,,,,,,,,
,survey-multi-choice,270809.0,0.0-1.1-1.1,,47709,"{""Q0"":""$-48 to $48"",""Q1"":""No, the cost is always $1.00."",""Q2"":""There is no limit"",""Q3"":""The better I perform the higher my bonus will be."",""Q4"":""No, the amount of cash at each node of the web may be different each time.""}","{'Q0': '$-48 to $48', 'Q1': 'No, the cost is always $1.00.', 'Q2': 'There is no limit', 'Q3': 'The better I perform the higher my bonus will be.', 'Q4': 'No, the amount of cash at each node of the web may be different each time.'}",2273,,,,,,,,,,,,,,,,,
,survey-multi-choice,935041.0,0.0-3.0-3.0,,41638,"{""Q0"":""$-4 to $4"",""Q1"":""$-4 to $4"",""Q2"":""$-48 to $48"",""Q3"":""No, the cost is always $1.00."",""Q4"":""Very motivated""}",,2273,,,,,,,,,,,,,,,,,
,survey-multi-choice,245502.0,0.0-1.0-1.0,,39184,"{""Q0"":""$-48 to $48"",""Q1"":""No, the cost is always $1.00."",""Q2"":""One time"",""Q3"":""The better I perform the higher my bonus will be."",""Q4"":""No, the structure of the web will be different each time.""}","{'Q0': '$-48 to $48', 'Q1': 'No, the cost is always $1.00.', 'Q2': 'There is no limit', 'Q3': 'The better I perform the higher my bonus will be.', 'Q4': 'No, the amount of cash at each node of the web may be different each time.'}",2225,,,,,,,,,,,,,,,,,
,survey-multi-choice,325596.0,0.0-1.1-1.1,,30173,"{""Q0"":""$-48 to $48"",""Q1"":""No, the cost is always $1.00."",""Q2"":""One time"",""Q3"":""The better I perform the higher my bonus will be."",""Q4"":""No, the amount of cash at each node of the web may be different each time.""}","{'Q0': '$-48 to $48', 'Q1': 'No, the cost is always $1.00.', 'Q2': 'There is no limit', 'Q3': 'The better I perform the higher my bonus will be.', 'Q4': 'No, the amount of cash at each node of the web may be different each time.'}",2225,,,,,,,,,,,,,,,,,
,survey-multi-choice,388870.0,0.0-1.2-1.2,,43795,"{""Q0"":""$-48 to $48"",""Q1"":""No, the cost is always $1.00."",""Q2"":""One time"",""Q3"":""No."",""Q4"":""No, the amount of cash at each node of the web may be different each time.""}","{'Q0': '$-48 to $48', 'Q1': 'No, the cost is always $1.00.', 'Q2': 'There is no limit', 'Q3': 'The better I perform the higher my bonus will be.', 'Q4': 'No, the amount of cash at each node of the web may be different each time.'}",2225,,,,,,,,,,,,,,,,,
,survey-multi-choice,457813.0,0.0-1.3-1.3,,33008,"{""Q0"":""$-48 to $48"",""Q1"":""No, the cost is always $1.00."",""Q2"":""One time"",""Q3"":""The better I perform the higher my bonus will be."",""Q4"":""No, the amount of cash at each node of the web may be different each time.""}","{'Q0': '$-48 to $48', 'Q1': 'No, the cost is always $1.00.', 'Q2': 'There is no limit', 'Q3': 'The better I perform the higher my bonus will be.', 'Q4': 'No, the amount of cash at each node of the web may be different each time.'}",2225,,,,,,,,,,,,,,,,,
,survey-multi-choice,998778.0,0.0-3.0-3.0,,33332,"{""Q0"":""$-4 to $4"",""Q1"":""$-8 to $8"",""Q2"":""$-48 to $48"",""Q3"":""No, the cost is always $1.00."",""Q4"":""Slightly motivated""}",,2225,,,,,,,,,,,,,,,,,
,survey-multi-choice,152826.0,0.0-1.0-1.0,,20742,"{""Q0"":""$-48 to $48"",""Q1"":""No, the cost is always $1.00."",""Q2"":""There is no limit"",""Q3"":""The better I perform the higher my bonus will be."",""Q4"":""No, the amount of cash at each node of the web may be different each time.""}","{'Q0': '$-48 to $48', 'Q1': 'No, the cost is always $1.00.', 'Q2': 'There is no limit', 'Q3': 'The better I perform the higher my bonus will be.', 'Q4': 'No, the amount of cash at each node of the web may be different each time.'}",2226,,,,,,,,,,,,,,,,,
,survey-multi-choice,712221.0,0.0-3.0-3.0,,29996,"{""Q0"":""$-4 to $4"",""Q1"":""$-8 to $8"",""Q2"":""$-48 to $48"",""Q3"":""No, the cost is always $1.00."",""Q4"":""Very motivated""}",,2226,,,,,,,,,,,,,,,,,
,survey-multi-choice,132311.0,0.0-1.0-1.0,,33031,"{""Q0"":""$-48 to $48"",""Q1"":""No, the cost is always $1.00."",""Q2"":""One time"",""Q3"":""The better I perform the higher my bonus will be."",""Q4"":""No, the amount of cash at each node of the web may be different each time.""}","{'Q0': '$-48 to $48', 'Q1': 'No, the cost is always $1.00.', 'Q2': 'There is no limit', 'Q3': 'The better I perform the higher my bonus will be.', 'Q4': 'No, the amount of cash at each node of the web may be different each time.'}",2340,,,,,,,,,,,,,,,,,
,survey-multi-choice,231974.0,0.0-1.1-1.1,,36701,"{""Q0"":""$-48 to $48"",""Q1"":""No, the cost is always $1.00."",""Q2"":""There is no limit"",""Q3"":""The better I perform the higher my bonus will be."",""Q4"":""No, the amount of cash at each node of the web may be different each time.""}","{'Q0': '$-48 to $48', 'Q1': 'No, the cost is always $1.00.', 'Q2': 'There is no limit', 'Q3': 'The better I perform the higher my bonus will be.', 'Q4': 'No, the amount of cash at each node of the web may be different each time.'}",2340,,,,,,,,,,,,,,,,,
,survey-multi-choice,922508.0,0.0-3.0-3.0,,50513,"{""Q0"":""$-4 to $4"",""Q1"":""$-8 to $8"",""Q2"":""$-48 to $48"",""Q3"":""No, the cost is always $1.00."",""Q4"":""Very motivated""}",,2340,,,,,,,,,,,,,,,,,
,survey-multi-choice,133269.0,0.0-1.0-1.0,,41464.0,"{""Q0"":""$-48 to $48"",""Q1"":""No, the cost is always $1.00."",""Q2"":""One time"",""Q3"":""The better I perform the higher my bonus will be."",""Q4"":""No, the structure of the web will be different each time.""}","{'Q0': '$-48 to $48', 'Q1': 'No, the cost is always $1.00.', 'Q2': 'There is no limit', 'Q3': 'The better I perform the higher my bonus will be.', 'Q4': 'No, the amount of cash at each node of the web may be different each time.'}",2307,,,,,,,,,,,,,,,,,
,survey-multi-choice,208140.0,0.0-1.1-1.1,,14817.0,"{""Q0"":""$-48 to $48"",""Q1"":""No, the cost is always $1.00."",""Q2"":""One time"",""Q3"":""The better I perform the higher my bonus will be."",""Q4"":""No, the amount of cash at each node of the web may be different each time.""}","{'Q0': '$-48 to $48', 'Q1': 'No, the cost is always $1.00.', 'Q2': 'There is no limit', 'Q3': 'The better I perform the higher my bonus will be.', 'Q4': 'No, the amount of cash at each node of the web may be different each time.'}",2307,,,,,,,,,,,,,,,,,
,survey-multi-choice,247284.0,0.0-1.2-1.2,,13806.0,"{""Q0"":""$-48 to $48"",""Q1"":""No, the cost is always $1.00."",""Q2"":""One time"",""Q3"":""The better I perform the higher my bonus will be."",""Q4"":""Yes.""}","{'Q0': '$-48 to $48', 'Q1': 'No, the cost is always $1.00.', 'Q2': 'There is no limit', 'Q3': 'The better I perform the higher my bonus will be.', 'Q4': 'No, the amount of cash at each node of the web may be different each time.'}",2307,,,,,,,,,,,,,,,,,
,survey-multi-choice,312690.0,0.0-1.3-1.3,,21977.0,"{""Q0"":""$-48 to $48"",""Q1"":""There is no cost for clicking on nodes."",""Q2"":""One time"",""Q3"":""The better I perform the higher my bonus will be."",""Q4"":""No, the amount of cash at each node of the web may be different each time.""}","{'Q0': '$-48 to $48', 'Q1': 'No, the cost is always $1.00.', 'Q2': 'There is no limit', 'Q3': 'The better I perform the higher my bonus will be.', 'Q4': 'No, the amount of cash at each node of the web may be different each time.'}",2307,,,,,,,,,,,,,,,,,
,survey-multi-choice,74862.0,0.0-1.0-1.0,,31686,"{""Q0"":""$-48 to $48"",""Q1"":""No, the cost is always $1.00."",""Q2"":""There is no limit"",""Q3"":""The better I perform the higher my bonus will be."",""Q4"":""No, the amount of cash at each node of the web may be different each time.""}","{'Q0': '$-48 to $48', 'Q1': 'No, the cost is always $1.00.', 'Q2': 'There is no limit', 'Q3': 'The better I perform the higher my bonus will be.', 'Q4': 'No, the amount of cash at each node of the web may be different each time.'}",2227,,,,,,,,,,,,,,,,,
,survey-multi-choice,1091026.0,0.0-3.0-3.0,,39976,"{""Q0"":""$-4 to $4"",""Q1"":""$-8 to $8"",""Q2"":""$-48 to $48"",""Q3"":""No, the cost is always $1.00."",""Q4"":""Very motivated""}",,2227,,,,,,,,,,,,,,,,,
,survey-multi-choice,105746.0,0.0-1.0-1.0,,22323,"{""Q0"":""$-48 to $48"",""Q1"":""No, the cost is always $1.00."",""Q2"":""There is no limit"",""Q3"":""The better I perform the higher my bonus will be."",""Q4"":""No, the structure of the web will be different each time.""}","{'Q0': '$-48 to $48', 'Q1': 'No, the cost is always $1.00.', 'Q2': 'There is no limit', 'Q3': 'The better I perform the higher my bonus will be.', 'Q4': 'No, the amount of cash at each node of the web may be different each time.'}",2228,,,,,,,,,,,,,,,,,
,survey-multi-choice,262326.0,0.0-1.1-1.1,,40416,"{""Q0"":""$-48 to $48"",""Q1"":""No, the cost is always $1.00."",""Q2"":""There is no limit"",""Q3"":""The better I perform the higher my bonus will be."",""Q4"":""No, the amount of cash at each node of the web may be different each time.""}","{'Q0': '$-48 to $48', 'Q1': 'No, the cost is always $1.00.', 'Q2': 'There is no limit', 'Q3': 'The better I perform the higher my bonus will be.', 'Q4': 'No, the amount of cash at each node of the web may be different each time.'}",2228,,,,,,,,,,,,,,,,,
,survey-multi-choice,927346.0,0.0-3.0-3.0,,33598,"{""Q0"":""$-4 to $4"",""Q1"":""$-8 to $8"",""Q2"":""$-48 to $48"",""Q3"":""No, the cost is always $1.00."",""Q4"":""Very motivated""}",,2228,,,,,,,,,,,,,,,,,
,survey-multi-choice,77946.0,0.0-1.0-1.0,,27842,"{""Q0"":""$-48 to $48"",""Q1"":""No, the cost is always $1.00."",""Q2"":""There is no limit"",""Q3"":""The better I perform the higher my bonus will be."",""Q4"":""No, the amount of cash at each node of the web may be different each time.""}","{'Q0': '$-48 to $48', 'Q1': 'No, the cost is always $1.00.', 'Q2': 'There is no limit', 'Q3': 'The better I perform the higher my bonus will be.', 'Q4': 'No, the amount of cash at each node of the web may be different each time.'}",2211,,,,,,,,,,,,,,,,,
,survey-multi-choice,538368.0,0.0-3.0-3.0,,23279,"{""Q0"":""$-8 to $8"",""Q1"":""$-4 to $4"",""Q2"":""$-48 to $48"",""Q3"":""No, the cost is always $1.00."",""Q4"":""Very motivated""}",,2211,,,,,,,,,,,,,,,,,
,survey-multi-choice,166090.0,0.0-1.0-1.0,,34580,"{""Q0"":""$-48 to $48"",""Q1"":""No, the cost is always $1.00."",""Q2"":""One time"",""Q3"":""The better I perform the higher my bonus will be."",""Q4"":""No, the amount of cash at each node of the web may be different each time.""}","{'Q0': '$-48 to $48', 'Q1': 'No, the cost is always $1.00.', 'Q2': 'There is no limit', 'Q3': 'The better I perform the higher my bonus will be.', 'Q4': 'No, the amount of cash at each node of the web may be different each time.'}",2354,,,,,,,,,,,,,,,,,
,survey-multi-choice,256121.0,0.0-1.1-1.1,,15955,"{""Q0"":""$-48 to $48"",""Q1"":""No, the cost is always $1.00."",""Q2"":""There is no limit"",""Q3"":""The better I perform the higher my bonus will be."",""Q4"":""No, the amount of cash at each node of the web may be different each time.""}","{'Q0': '$-48 to $48', 'Q1': 'No, the cost is always $1.00.', 'Q2': 'There is no limit', 'Q3': 'The better I perform the higher my bonus will be.', 'Q4': 'No, the amount of cash at each node of the web may be different each time.'}",2354,,,,,,,,,,,,,,,,,
,survey-multi-choice,1166493.0,0.0-3.0-3.0,,63123,"{""Q0"":""$-4 to $4"",""Q1"":""$-8 to $8"",""Q2"":""$-48 to $48"",""Q3"":""No, the cost is always $1.00."",""Q4"":""Very motivated""}",,2354,,,,,,,,,,,,,,,,,
,survey-multi-choice,49443.0,0.0-1.0-1.0,,19239,"{""Q0"":""$0 to $50"",""Q1"":""Yes, but the cost for clicking on nodes varies."",""Q2"":""Three times"",""Q3"":""The better I perform the higher my bonus will be."",""Q4"":""No, the amount of cash at each node of the web may be different each time.""}","{'Q0': '$-48 to $48', 'Q1': 'No, the cost is always $1.00.', 'Q2': 'There is no limit', 'Q3': 'The better I perform the higher my bonus will be.', 'Q4': 'No, the amount of cash at each node of the web may be different each time.'}",2286,,,,,,,,,,,,,,,,,
,survey-multi-choice,130116.0,0.0-1.1-1.1,,19686,"{""Q0"":""$-48 to $48"",""Q1"":""No, the cost is always $1.00."",""Q2"":""There is no limit"",""Q3"":""The better I perform the higher my bonus will be."",""Q4"":""No, the structure of the web will be different each time.""}","{'Q0': '$-48 to $48', 'Q1': 'No, the cost is always $1.00.', 'Q2': 'There is no limit', 'Q3': 'The better I perform the higher my bonus will be.', 'Q4': 'No, the amount of cash at each node of the web may be different each time.'}",2286,,,,,,,,,,,,,,,,,
,survey-multi-choice,239147.0,0.0-1.2-1.2,,57119,"{""Q0"":""$-48 to $48"",""Q1"":""No, the cost is always $1.00."",""Q2"":""There is no limit"",""Q3"":""The better I perform the higher my bonus will be."",""Q4"":""No, the amount of cash at each node of the web may be different each time.""}","{'Q0': '$-48 to $48', 'Q1': 'No, the cost is always $1.00.', 'Q2': 'There is no limit', 'Q3': 'The better I perform the higher my bonus will be.', 'Q4': 'No, the amount of cash at each node of the web may be different each time.'}",2286,,,,,,,,,,,,,,,,,
,survey-multi-choice,749172.0,0.0-3.0-3.0,,29323,"{""Q0"":""$-48 to $48"",""Q1"":""$-4 to $4"",""Q2"":""$-48 to $48"",""Q3"":""No, the cost is always $1.00."",""Q4"":""Very motivated""}",,2286,,,,,,,,,,,,,,,,,
,survey-multi-choice,110251.0,0.0-1.0-1.0,,25555,"{""Q0"":""$-48 to $48"",""Q1"":""No, the cost is always $1.00."",""Q2"":""One time"",""Q3"":""The better I perform the higher my bonus will be."",""Q4"":""No, the amount of cash at each node of the web may be different each time.""}","{'Q0': '$-48 to $48', 'Q1': 'No, the cost is always $1.00.', 'Q2': 'There is no limit', 'Q3': 'The better I perform the higher my bonus will be.', 'Q4': 'No, the amount of cash at each node of the web may be different each time.'}",2287,,,,,,,,,,,,,,,,,
,survey-multi-choice,170722.0,0.0-1.1-1.1,,21642,"{""Q0"":""$-48 to $48"",""Q1"":""No, the cost is always $1.00."",""Q2"":""There is no limit"",""Q3"":""The better I perform the higher my bonus will be."",""Q4"":""No, the amount of cash at each node of the web may be different each time.""}","{'Q0': '$-48 to $48', 'Q1': 'No, the cost is always $1.00.', 'Q2': 'There is no limit', 'Q3': 'The better I perform the higher my bonus will be.', 'Q4': 'No, the amount of cash at each node of the web may be different each time.'}",2287,,,,,,,,,,,,,,,,,
,survey-multi-choice,647043.0,0.0-3.0-3.0,,34987,"{""Q0"":""$-4 to $4"",""Q1"":""$-4 to $4"",""Q2"":""$-48 to $48"",""Q3"":""No, the cost is always $1.00."",""Q4"":""Very motivated""}",,2287,,,,,,,,,,,,,,,,,
,survey-multi-choice,365951.0,0.0-1.0-1.0,,34526,"{""Q0"":""$-48 to $48"",""Q1"":""No, the cost is always $1.00."",""Q2"":""There is no limit"",""Q3"":""The better I perform the higher my bonus will be."",""Q4"":""No, the amount of cash at each node of the web may be different each time.""}","{'Q0': '$-48 to $48', 'Q1': 'No, the cost is always $1.00.', 'Q2': 'There is no limit', 'Q3': 'The better I perform the higher my bonus will be.', 'Q4': 'No, the amount of cash at each node of the web may be different each time.'}",2229,,,,,,,,,,,,,,,,,
,survey-multi-choice,825095.0,0.0-3.0-3.0,,23516,"{""Q0"":""$-4 to $4"",""Q1"":""$-8 to $8"",""Q2"":""$-48 to $48"",""Q3"":""No, the cost is always $1.00."",""Q4"":""Very motivated""}",,2229,,,,,,,,,,,,,,,,,
,survey-multi-choice,159594.0,0.0-1.0-1.0,,20491,"{""Q0"":""$-48 to $48"",""Q1"":""No, the cost is always $1.00."",""Q2"":""There is no limit"",""Q3"":""The better I perform the higher my bonus will be."",""Q4"":""No, the amount of cash at each node of the web may be different each time.""}","{'Q0': '$-48 to $48', 'Q1': 'No, the cost is always $1.00.', 'Q2': 'There is no limit', 'Q3': 'The better I perform the higher my bonus will be.', 'Q4': 'No, the amount of cash at each node of the web may be different each time.'}",2212,,,,,,,,,,,,,,,,,
,survey-multi-choice,654160.0,0.0-3.0-3.0,,33581,"{""Q0"":""$-48 to $48"",""Q1"":""$-4 to $4"",""Q2"":""$-8 to $8"",""Q3"":""No, the cost is always $1.00."",""Q4"":""Very motivated""}",,2212,,,,,,,,,,,,,,,,,
,survey-multi-choice,81713.0,0.0-1.0-1.0,,21034,"{""Q0"":""$-48 to $48"",""Q1"":""No, the cost is always $1.00."",""Q2"":""There is no limit"",""Q3"":""The better I perform the higher my bonus will be."",""Q4"":""No, the amount of cash at each node of the web may be different each time.""}","{'Q0': '$-48 to $48', 'Q1': 'No, the cost is always $1.00.', 'Q2': 'There is no limit', 'Q3': 'The better I perform the higher my bonus will be.', 'Q4': 'No, the amount of cash at each node of the web may be different each time.'}",2322,,,,,,,,,,,,,,,,,
,survey-multi-choice,565080.0,0.0-3.0-3.0,,20609,"{""Q0"":""$-4 to $4"",""Q1"":""$-8 to $8"",""Q2"":""$-48 to $48"",""Q3"":""No, the cost is always $1.00."",""Q4"":""Very motivated""}",,2322,,,,,,,,,,,,,,,,,
,survey-multi-choice,93959.0,0.0-1.0-1.0,,22329,"{""Q0"":""$-48 to $48"",""Q1"":""No, the cost is always $1.00."",""Q2"":""One time"",""Q3"":""The better I perform the higher my bonus will be."",""Q4"":""No, the amount of cash at each node of the web may be different each time.""}","{'Q0': '$-48 to $48', 'Q1': 'No, the cost is always $1.00.', 'Q2': 'There is no limit', 'Q3': 'The better I perform the higher my bonus will be.', 'Q4': 'No, the amount of cash at each node of the web may be different each time.'}",2275,,,,,,,,,,,,,,,,,
,survey-multi-choice,181001.0,0.0-1.1-1.1,,24920,"{""Q0"":""$-48 to $48"",""Q1"":""No, the cost is always $1.00."",""Q2"":""There is no limit"",""Q3"":""The better I perform the higher my bonus will be."",""Q4"":""No, the amount of cash at each node of the web may be different each time.""}","{'Q0': '$-48 to $48', 'Q1': 'No, the cost is always $1.00.', 'Q2': 'There is no limit', 'Q3': 'The better I perform the higher my bonus will be.', 'Q4': 'No, the amount of cash at each node of the web may be different each time.'}",2275,,,,,,,,,,,,,,,,,
,survey-multi-choice,694814.0,0.0-3.0-3.0,,32893,"{""Q0"":""$-4 to $4"",""Q1"":""$-8 to $8"",""Q2"":""$-48 to $48"",""Q3"":""No, the cost is always $1.00."",""Q4"":""Very motivated""}",,2275,,,,,,,,,,,,,,,,,
,survey-multi-choice,60916.0,0.0-1.0-1.0,,19350,"{""Q0"":""$-48 to $48"",""Q1"":""No, the cost is always $1.00."",""Q2"":""There is no limit"",""Q3"":""The better I perform the higher my bonus will be."",""Q4"":""No, the amount of cash at each node of the web may be different each time.""}","{'Q0': '$-48 to $48', 'Q1': 'No, the cost is always $1.00.', 'Q2': 'There is no limit', 'Q3': 'The better I perform the higher my bonus will be.', 'Q4': 'No, the amount of cash at each node of the web may be different each time.'}",2231,,,,,,,,,,,,,,,,,
,survey-multi-choice,479668.0,0.0-3.0-3.0,,20284,"{""Q0"":""$-4 to $4"",""Q1"":""$-8 to $8"",""Q2"":""$-48 to $48"",""Q3"":""No, the cost is always $1.00."",""Q4"":""Very motivated""}",,2231,,,,,,,,,,,,,,,,,
,survey-multi-choice,235215.0,0.0-1.0-1.0,,36582,"{""Q0"":""$-48 to $48"",""Q1"":""No, the cost is always $1.00."",""Q2"":""One time"",""Q3"":""The better I perform the higher my bonus will be."",""Q4"":""No, the amount of cash at each node of the web may be different each time.""}","{'Q0': '$-48 to $48', 'Q1': 'No, the cost is always $1.00.', 'Q2': 'There is no limit', 'Q3': 'The better I perform the higher my bonus will be.', 'Q4': 'No, the amount of cash at each node of the web may be different each time.'}",2232,,,,,,,,,,,,,,,,,
,survey-multi-choice,530795.0,0.0-1.1-1.1,,185665,"{""Q0"":""$-48 to $48"",""Q1"":""No, the cost is always $1.00."",""Q2"":""One time"",""Q3"":""The better I perform the higher my bonus will be."",""Q4"":""Yes.""}","{'Q0': '$-48 to $48', 'Q1': 'No, the cost is always $1.00.', 'Q2': 'There is no limit', 'Q3': 'The better I perform the higher my bonus will be.', 'Q4': 'No, the amount of cash at each node of the web may be different each time.'}",2232,,,,,,,,,,,,,,,,,
,survey-multi-choice,623563.0,0.0-1.2-1.2,,48178,"{""Q0"":""$-48 to $48"",""Q1"":""No, the cost is always $1.00."",""Q2"":""There is no limit"",""Q3"":""The better I perform the higher my bonus will be."",""Q4"":""No, the amount of cash at each node of the web may be different each time.""}","{'Q0': '$-48 to $48', 'Q1': 'No, the cost is always $1.00.', 'Q2': 'There is no limit', 'Q3': 'The better I perform the higher my bonus will be.', 'Q4': 'No, the amount of cash at each node of the web may be different each time.'}",2232,,,,,,,,,,,,,,,,,
,survey-multi-choice,1137736.0,0.0-3.0-3.0,,38083,"{""Q0"":""$-48 to $48"",""Q1"":""$-8 to $8"",""Q2"":""$-48 to $48"",""Q3"":""No, the cost is always $1.00."",""Q4"":""Very motivated""}",,2232,,,,,,,,,,,,,,,,,
,survey-multi-choice,106640.0,0.0-1.0-1.0,,23292,"{""Q0"":""$-48 to $48"",""Q1"":""No, the cost is always $1.00."",""Q2"":""One time"",""Q3"":""The better I perform the higher my bonus will be."",""Q4"":""No, the amount of cash at each node of the web may be different each time.""}","{'Q0': '$-48 to $48', 'Q1': 'No, the cost is always $1.00.', 'Q2': 'There is no limit', 'Q3': 'The better I perform the higher my bonus will be.', 'Q4': 'No, the amount of cash at each node of the web may be different each time.'}",2233,,,,,,,,,,,,,,,,,
,survey-multi-choice,180256.0,0.0-1.1-1.1,,36137,"{""Q0"":""$-48 to $48"",""Q1"":""No, the cost is always $1.00."",""Q2"":""There is no limit"",""Q3"":""The better I perform the higher my bonus will be."",""Q4"":""No, the amount of cash at each node of the web may be different each time.""}","{'Q0': '$-48 to $48', 'Q1': 'No, the cost is always $1.00.', 'Q2': 'There is no limit', 'Q3': 'The better I perform the higher my bonus will be.', 'Q4': 'No, the amount of cash at each node of the web may be different each time.'}",2233,,,,,,,,,,,,,,,,,
,survey-multi-choice,719168.0,0.0-3.0-3.0,,24337,"{""Q0"":""$-4 to $4"",""Q1"":""$-8 to $8"",""Q2"":""$-48 to $48"",""Q3"":""No, the cost is always $1.00."",""Q4"":""Very motivated""}",,2233,,,,,,,,,,,,,,,,,
,survey-multi-choice,88187.0,0.0-1.0-1.0,,20133,"{""Q0"":""$-48 to $48"",""Q1"":""No, the cost is always $1.00."",""Q2"":""There is no limit"",""Q3"":""The better I perform the higher my bonus will be."",""Q4"":""No, the structure of the web will be different each time.""}","{'Q0': '$-48 to $48', 'Q1': 'No, the cost is always $1.00.', 'Q2': 'There is no limit', 'Q3': 'The better I perform the higher my bonus will be.', 'Q4': 'No, the amount of cash at each node of the web may be different each time.'}",2366,,,,,,,,,,,,,,,,,
,survey-multi-choice,122693.0,0.0-1.1-1.1,,11063,"{""Q0"":""$-48 to $48"",""Q1"":""No, the cost is always $1.00."",""Q2"":""There is no limit"",""Q3"":""The better I perform the higher my bonus will be."",""Q4"":""No, the amount of cash at each node of the web may be different each time.""}","{'Q0': '$-48 to $48', 'Q1': 'No, the cost is always $1.00.', 'Q2': 'There is no limit', 'Q3': 'The better I perform the higher my bonus will be.', 'Q4': 'No, the amount of cash at each node of the web may be different each time.'}",2366,,,,,,,,,,,,,,,,,
,survey-multi-choice,596618.0,0.0-3.0-3.0,,57182,"{""Q0"":""$-4 to $4"",""Q1"":""$-8 to $8"",""Q2"":""$-48 to $48"",""Q3"":""No, the cost is always $1.00."",""Q4"":""Very motivated""}",,2366,,,,,,,,,,,,,,,,,
,survey-multi-choice,219389.0,0.0-1.0-1.0,,24786,"{""Q0"":""$-48 to $48"",""Q1"":""No, the cost is always $1.00."",""Q2"":""One time"",""Q3"":""The better I perform the higher my bonus will be."",""Q4"":""No, the amount of cash at each node of the web may be different each time.""}","{'Q0': '$-48 to $48', 'Q1': 'No, the cost is always $1.00.', 'Q2': 'There is no limit', 'Q3': 'The better I perform the higher my bonus will be.', 'Q4': 'No, the amount of cash at each node of the web may be different each time.'}",2276,,,,,,,,,,,,,,,,,
,survey-multi-choice,465678.0,0.0-1.1-1.1,,28847,"{""Q0"":""$-48 to $48"",""Q1"":""No, the cost is always $1.00."",""Q2"":""There is no limit"",""Q3"":""The better I perform the higher my bonus will be."",""Q4"":""No, the amount of cash at each node of the web may be different each time.""}","{'Q0': '$-48 to $48', 'Q1': 'No, the cost is always $1.00.', 'Q2': 'There is no limit', 'Q3': 'The better I perform the higher my bonus will be.', 'Q4': 'No, the amount of cash at each node of the web may be different each time.'}",2276,,,,,,,,,,,,,,,,,
,survey-multi-choice,970416.0,0.0-3.0-3.0,,31192,"{""Q0"":""$-4 to $4"",""Q1"":""$-8 to $8"",""Q2"":""$-48 to $48"",""Q3"":""No, the cost is always $1.00."",""Q4"":""Very motivated""}",,2276,,,,,,,,,,,,,,,,,
,survey-multi-choice,181727.0,0.0-1.0-1.0,,22660.0,"{""Q0"":""$-48 to $48"",""Q1"":""No, the cost is always $1.00."",""Q2"":""One time"",""Q3"":""The better I perform the higher my bonus will be."",""Q4"":""No, the amount of cash at each node of the web may be different each time.""}","{'Q0': '$-48 to $48', 'Q1': 'No, the cost is always $1.00.', 'Q2': 'There is no limit', 'Q3': 'The better I perform the higher my bonus will be.', 'Q4': 'No, the amount of cash at each node of the web may be different each time.'}",195,,,,,,,,,,,,,,,,,
,survey-multi-choice,249190.0,0.0-1.1-1.1,,18140.0,"{""Q0"":""$-48 to $48"",""Q1"":""No, the cost is always $1.00."",""Q2"":""One time"",""Q3"":""The better I perform the higher my bonus will be."",""Q4"":""No, the structure of the web will be different each time.""}","{'Q0': '$-48 to $48', 'Q1': 'No, the cost is always $1.00.', 'Q2': 'There is no limit', 'Q3': 'The better I perform the higher my bonus will be.', 'Q4': 'No, the amount of cash at each node of the web may be different each time.'}",195,,,,,,,,,,,,,,,,,
,survey-multi-choice,356586.0,0.0-1.2-1.2,,35711.0,"{""Q0"":""$-48 to $48"",""Q1"":""No, the cost is always $1.00."",""Q2"":""One time"",""Q3"":""The better I perform the higher my bonus will be."",""Q4"":""No, the amount of cash at each node of the web may be different each time.""}","{'Q0': '$-48 to $48', 'Q1': 'No, the cost is always $1.00.', 'Q2': 'There is no limit', 'Q3': 'The better I perform the higher my bonus will be.', 'Q4': 'No, the amount of cash at each node of the web may be different each time.'}",195,,,,,,,,,,,,,,,,,
,survey-multi-choice,383687.0,0.0-1.3-1.3,,17823.0,"{""Q0"":""$-48 to $48"",""Q1"":""There is no cost for clicking on nodes."",""Q2"":""One time"",""Q3"":""The better I perform the higher my bonus will be."",""Q4"":""No, the amount of cash at each node of the web may be different each time.""}","{'Q0': '$-48 to $48', 'Q1': 'No, the cost is always $1.00.', 'Q2': 'There is no limit', 'Q3': 'The better I perform the higher my bonus will be.', 'Q4': 'No, the amount of cash at each node of the web may be different each time.'}",195,,,,,,,,,,,,,,,,,
,survey-multi-choice,194087.0,0.0-1.0-1.0,,72476,"{""Q0"":""$-48 to $48"",""Q1"":""No, the cost is always $1.00."",""Q2"":""There is no limit"",""Q3"":""The better I perform the higher my bonus will be."",""Q4"":""No, the amount of cash at each node of the web may be different each time.""}","{'Q0': '$-48 to $48', 'Q1': 'No, the cost is always $1.00.', 'Q2': 'There is no limit', 'Q3': 'The better I perform the higher my bonus will be.', 'Q4': 'No, the amount of cash at each node of the web may be different each time.'}",2234,,,,,,,,,,,,,,,,,
,survey-multi-choice,735500.0,0.0-3.0-3.0,,37486,"{""Q0"":""$-4 to $4"",""Q1"":""$-8 to $8"",""Q2"":""$-48 to $48"",""Q3"":""No, the cost is always $1.00."",""Q4"":""Very motivated""}",,2234,,,,,,,,,,,,,,,,,
,survey-multi-choice,182075.0,0.0-1.0-1.0,,50988,"{""Q0"":""$-48 to $48"",""Q1"":""No, the cost is always $1.00."",""Q2"":""There is no limit"",""Q3"":""The better I perform the higher my bonus will be."",""Q4"":""No, the amount of cash at each node of the web may be different each time.""}","{'Q0': '$-48 to $48', 'Q1': 'No, the cost is always $1.00.', 'Q2': 'There is no limit', 'Q3': 'The better I perform the higher my bonus will be.', 'Q4': 'No, the amount of cash at each node of the web may be different each time.'}",2235,,,,,,,,,,,,,,,,,
,survey-multi-choice,737249.0,0.0-3.0-3.0,,36241,"{""Q0"":""$-4 to $4"",""Q1"":""$-8 to $8"",""Q2"":""$-48 to $48"",""Q3"":""No, the cost is always $1.00."",""Q4"":""Very motivated""}",,2235,,,,,,,,,,,,,,,,,
,survey-multi-choice,76360.0,0.0-1.0-1.0,,20011,"{""Q0"":""$-10 to $10"",""Q1"":""No, the cost is always $1.00."",""Q2"":""There is no limit"",""Q3"":""The better I perform the higher my bonus will be."",""Q4"":""No, the amount of cash at each node of the web may be different each time.""}","{'Q0': '$-48 to $48', 'Q1': 'No, the cost is always $1.00.', 'Q2': 'There is no limit', 'Q3': 'The better I perform the higher my bonus will be.', 'Q4': 'No, the amount of cash at each node of the web may be different each time.'}",2361,,,,,,,,,,,,,,,,,
,survey-multi-choice,131136.0,0.0-1.1-1.1,,17604,"{""Q0"":""$-48 to $48"",""Q1"":""No, the cost is always $1.00."",""Q2"":""There is no limit"",""Q3"":""The better I perform the higher my bonus will be."",""Q4"":""No, the amount of cash at each node of the web may be different each time.""}","{'Q0': '$-48 to $48', 'Q1': 'No, the cost is always $1.00.', 'Q2': 'There is no limit', 'Q3': 'The better I perform the higher my bonus will be.', 'Q4': 'No, the amount of cash at each node of the web may be different each time.'}",2361,,,,,,,,,,,,,,,,,
,survey-multi-choice,873267.0,0.0-3.0-3.0,,59949,"{""Q0"":""$-4 to $4"",""Q1"":""$-4 to $4"",""Q2"":""$-48 to $48"",""Q3"":""No, the cost is always $1.00."",""Q4"":""Very motivated""}",,2361,,,,,,,,,,,,,,,,,
,survey-multi-choice,113950.0,0.0-1.0-1.0,,31444,"{""Q0"":""$-10 to $10"",""Q1"":""No, the cost is always $1.00."",""Q2"":""There is no limit"",""Q3"":""The better I perform the higher my bonus will be."",""Q4"":""No, the amount of cash at each node of the web may be different each time.""}","{'Q0': '$-48 to $48', 'Q1': 'No, the cost is always $1.00.', 'Q2': 'There is no limit', 'Q3': 'The better I perform the higher my bonus will be.', 'Q4': 'No, the amount of cash at each node of the web may be different each time.'}",2323,,,,,,,,,,,,,,,,,
,survey-multi-choice,161383.0,0.0-1.1-1.1,,10211,"{""Q0"":""$-48 to $48"",""Q1"":""No, the cost is always $1.00."",""Q2"":""There is no limit"",""Q3"":""The better I perform the higher my bonus will be."",""Q4"":""No, the amount of cash at each node of the web may be different each time.""}","{'Q0': '$-48 to $48', 'Q1': 'No, the cost is always $1.00.', 'Q2': 'There is no limit', 'Q3': 'The better I perform the higher my bonus will be.', 'Q4': 'No, the amount of cash at each node of the web may be different each time.'}",2323,,,,,,,,,,,,,,,,,
,survey-multi-choice,687379.0,0.0-3.0-3.0,,26723,"{""Q0"":""$-48 to $48"",""Q1"":""$-8 to $8"",""Q2"":""$-48 to $48"",""Q3"":""No, the cost is always $1.00."",""Q4"":""Very motivated""}",,2323,,,,,,,,,,,,,,,,,
,survey-multi-choice,155034.0,0.0-1.0-1.0,,33993,"{""Q0"":""$-48 to $48"",""Q1"":""No, the cost is always $1.00."",""Q2"":""There is no limit"",""Q3"":""The better I perform the higher my bonus will be."",""Q4"":""No, the amount of cash at each node of the web may be different each time.""}","{'Q0': '$-48 to $48', 'Q1': 'No, the cost is always $1.00.', 'Q2': 'There is no limit', 'Q3': 'The better I perform the higher my bonus will be.', 'Q4': 'No, the amount of cash at each node of the web may be different each time.'}",2277,,,,,,,,,,,,,,,,,
,survey-multi-choice,763210.0,0.0-3.0-3.0,,40535,"{""Q0"":""$-4 to $4"",""Q1"":""$-8 to $8"",""Q2"":""$-48 to $48"",""Q3"":""No, the cost is always $1.00."",""Q4"":""Very motivated""}",,2277,,,,,,,,,,,,,,,,,
,survey-multi-choice,168961.0,0.0-1.0-1.0,,57795,"{""Q0"":""$-48 to $48"",""Q1"":""No, the cost is always $1.00."",""Q2"":""One time"",""Q3"":""The better I perform the higher my bonus will be."",""Q4"":""No, the amount of cash at each node of the web may be different each time.""}","{'Q0': '$-48 to $48', 'Q1': 'No, the cost is always $1.00.', 'Q2': 'There is no limit', 'Q3': 'The better I perform the higher my bonus will be.', 'Q4': 'No, the amount of cash at each node of the web may be different each time.'}",2236,,,,,,,,,,,,,,,,,
,survey-multi-choice,214819.0,0.0-1.1-1.1,,13008,"{""Q0"":""$-48 to $48"",""Q1"":""No, the cost is always $1.00."",""Q2"":""There is no limit"",""Q3"":""The better I perform the higher my bonus will be."",""Q4"":""No, the amount of cash at each node of the web may be different each time.""}","{'Q0': '$-48 to $48', 'Q1': 'No, the cost is always $1.00.', 'Q2': 'There is no limit', 'Q3': 'The better I perform the higher my bonus will be.', 'Q4': 'No, the amount of cash at each node of the web may be different each time.'}",2236,,,,,,,,,,,,,,,,,
,survey-multi-choice,760191.0,0.0-3.0-3.0,,23160,"{""Q0"":""$-4 to $4"",""Q1"":""$-8 to $8"",""Q2"":""$-48 to $48"",""Q3"":""No, the cost is always $1.00."",""Q4"":""Very motivated""}",,2236,,,,,,,,,,,,,,,,,
,survey-multi-choice,444839.0,0.0-1.0-1.0,,230563,"{""Q0"":""$-48 to $48"",""Q1"":""No, the cost is always $1.00."",""Q2"":""There is no limit"",""Q3"":""The better I perform the higher my bonus will be."",""Q4"":""No, the amount of cash at each node of the web may be different each time.""}","{'Q0': '$-48 to $48', 'Q1': 'No, the cost is always $1.00.', 'Q2': 'There is no limit', 'Q3': 'The better I perform the higher my bonus will be.', 'Q4': 'No, the amount of cash at each node of the web may be different each time.'}",2237,,,,,,,,,,,,,,,,,
,survey-multi-choice,1184240.0,0.0-3.0-3.0,,28554,"{""Q0"":""$-4 to $4"",""Q1"":""$-8 to $8"",""Q2"":""$-48 to $48"",""Q3"":""No, the cost is always $1.00."",""Q4"":""Very motivated""}",,2237,,,,,,,,,,,,,,,,,
,survey-multi-choice,126301.0,0.0-1.0-1.0,,22844,"{""Q0"":""$-48 to $48"",""Q1"":""No, the cost is always $1.00."",""Q2"":""There is no limit"",""Q3"":""The better I perform the higher my bonus will be."",""Q4"":""No, the amount of cash at each node of the web may be different each time.""}","{'Q0': '$-48 to $48', 'Q1': 'No, the cost is always $1.00.', 'Q2': 'There is no limit', 'Q3': 'The better I perform the higher my bonus will be.', 'Q4': 'No, the amount of cash at each node of the web may be different each time.'}",2213,,,,,,,,,,,,,,,,,
,survey-multi-choice,606039.0,0.0-3.0-3.0,,30974,"{""Q0"":""$-4 to $4"",""Q1"":""$-8 to $8"",""Q2"":""$-48 to $48"",""Q3"":""No, the cost is always $1.00."",""Q4"":""Very motivated""}",,2213,,,,,,,,,,,,,,,,,
,survey-multi-choice,69101.0,0.0-1.0-1.0,,21629,"{""Q0"":""$-48 to $48"",""Q1"":""No, the cost is always $1.00."",""Q2"":""One time"",""Q3"":""The better I perform the higher my bonus will be."",""Q4"":""No, the amount of cash at each node of the web may be different each time.""}","{'Q0': '$-48 to $48', 'Q1': 'No, the cost is always $1.00.', 'Q2': 'There is no limit', 'Q3': 'The better I perform the higher my bonus will be.', 'Q4': 'No, the amount of cash at each node of the web may be different each time.'}",2324,,,,,,,,,,,,,,,,,
,survey-multi-choice,104974.0,0.0-1.1-1.1,,14007,"{""Q0"":""$-48 to $48"",""Q1"":""No, the cost is always $1.00."",""Q2"":""There is no limit"",""Q3"":""The better I perform the higher my bonus will be."",""Q4"":""No, the amount of cash at each node of the web may be different each time.""}","{'Q0': '$-48 to $48', 'Q1': 'No, the cost is always $1.00.', 'Q2': 'There is no limit', 'Q3': 'The better I perform the higher my bonus will be.', 'Q4': 'No, the amount of cash at each node of the web may be different each time.'}",2324,,,,,,,,,,,,,,,,,
,survey-multi-choice,580014.0,0.0-3.0-3.0,,21074,"{""Q0"":""$-4 to $4"",""Q1"":""$-8 to $8"",""Q2"":""$-48 to $48"",""Q3"":""No, the cost is always $1.00."",""Q4"":""Very motivated""}",,2324,,,,,,,,,,,,,,,,,
,survey-multi-choice,211202.0,0.0-1.0-1.0,,34318,"{""Q0"":""$-48 to $48"",""Q1"":""No, the cost is always $1.00."",""Q2"":""One time"",""Q3"":""The better I perform the higher my bonus will be."",""Q4"":""No, the amount of cash at each node of the web may be different each time.""}","{'Q0': '$-48 to $48', 'Q1': 'No, the cost is always $1.00.', 'Q2': 'There is no limit', 'Q3': 'The better I perform the higher my bonus will be.', 'Q4': 'No, the amount of cash at each node of the web may be different each time.'}",2308,,,,,,,,,,,,,,,,,
,survey-multi-choice,465609.0,0.0-1.1-1.1,,69825,"{""Q0"":""$-48 to $48"",""Q1"":""No, the cost is always $1.00."",""Q2"":""One time"",""Q3"":""The better I perform the higher my bonus will be."",""Q4"":""No, the structure of the web will be different each time.""}","{'Q0': '$-48 to $48', 'Q1': 'No, the cost is always $1.00.', 'Q2': 'There is no limit', 'Q3': 'The better I perform the higher my bonus will be.', 'Q4': 'No, the amount of cash at each node of the web may be different each time.'}",2308,,,,,,,,,,,,,,,,,
,survey-multi-choice,950480.0,0.0-1.2-1.2,,244532,"{""Q0"":""$-48 to $48"",""Q1"":""No, the cost is always $1.00."",""Q2"":""There is no limit"",""Q3"":""The better I perform the higher my bonus will be."",""Q4"":""No, the amount of cash at each node of the web may be different each time.""}","{'Q0': '$-48 to $48', 'Q1': 'No, the cost is always $1.00.', 'Q2': 'There is no limit', 'Q3': 'The better I perform the higher my bonus will be.', 'Q4': 'No, the amount of cash at each node of the web may be different each time.'}",2308,,,,,,,,,,,,,,,,,
,survey-multi-choice,1545865.0,0.0-3.0-3.0,,47364,"{""Q0"":""$-4 to $4"",""Q1"":""$-8 to $8"",""Q2"":""$-48 to $48"",""Q3"":""No, the cost is always $1.00."",""Q4"":""Very motivated""}",,2308,,,,,,,,,,,,,,,,,
,survey-multi-choice,54356.0,0.0-1.0-1.0,,16277,"{""Q0"":""$-48 to $48"",""Q1"":""No, the cost is always $1.00."",""Q2"":""There is no limit"",""Q3"":""The better I perform the higher my bonus will be."",""Q4"":""No, the amount of cash at each node of the web may be different each time.""}","{'Q0': '$-48 to $48', 'Q1': 'No, the cost is always $1.00.', 'Q2': 'There is no limit', 'Q3': 'The better I perform the higher my bonus will be.', 'Q4': 'No, the amount of cash at each node of the web may be different each time.'}",2288,,,,,,,,,,,,,,,,,
,survey-multi-choice,525380.0,0.0-3.0-3.0,,26280,"{""Q0"":""$-4 to $4"",""Q1"":""$-8 to $8"",""Q2"":""$-48 to $48"",""Q3"":""No, the cost is always $1.00."",""Q4"":""Very motivated""}",,2288,,,,,,,,,,,,,,,,,
,survey-multi-choice,124457.0,0.0-1.0-1.0,,44054,"{""Q0"":""$-48 to $48"",""Q1"":""No, the cost is always $1.00."",""Q2"":""There is no limit"",""Q3"":""The better I perform the higher my bonus will be."",""Q4"":""No, the amount of cash at each node of the web may be different each time.""}","{'Q0': '$-48 to $48', 'Q1': 'No, the cost is always $1.00.', 'Q2': 'There is no limit', 'Q3': 'The better I perform the higher my bonus will be.', 'Q4': 'No, the amount of cash at each node of the web may be different each time.'}",2289,,,,,,,,,,,,,,,,,
,survey-multi-choice,651916.0,0.0-3.0-3.0,,30827,"{""Q0"":""$-4 to $4"",""Q1"":""$-8 to $8"",""Q2"":""$-48 to $48"",""Q3"":""No, the cost is always $1.00."",""Q4"":""Very motivated""}",,2289,,,,,,,,,,,,,,,,,
,survey-multi-choice,180693.0,0.0-1.0-1.0,,66423,"{""Q0"":""$-48 to $48"",""Q1"":""No, the cost is always $1.00."",""Q2"":""There is no limit"",""Q3"":""The better I perform the higher my bonus will be."",""Q4"":""No, the amount of cash at each node of the web may be different each time.""}","{'Q0': '$-48 to $48', 'Q1': 'No, the cost is always $1.00.', 'Q2': 'There is no limit', 'Q3': 'The better I perform the higher my bonus will be.', 'Q4': 'No, the amount of cash at each node of the web may be different each time.'}",2239,,,,,,,,,,,,,,,,,
,survey-multi-choice,781553.0,0.0-3.0-3.0,,46274,"{""Q0"":""$-4 to $4"",""Q1"":""$-8 to $8"",""Q2"":""$-48 to $48"",""Q3"":""No, the cost is always $1.00."",""Q4"":""Very motivated""}",,2239,,,,,,,,,,,,,,,,,
,survey-multi-choice,202145.0,0.0-1.0-1.0,,35643,"{""Q0"":""$-48 to $48"",""Q1"":""No, the cost is always $1.00."",""Q2"":""There is no limit"",""Q3"":""The better I perform the higher my bonus will be."",""Q4"":""No, the amount of cash at each node of the web may be different each time.""}","{'Q0': '$-48 to $48', 'Q1': 'No, the cost is always $1.00.', 'Q2': 'There is no limit', 'Q3': 'The better I perform the higher my bonus will be.', 'Q4': 'No, the amount of cash at each node of the web may be different each time.'}",2349,,,,,,,,,,,,,,,,,
,survey-multi-choice,857324.0,0.0-3.0-3.0,,33750,"{""Q0"":""$-4 to $4"",""Q1"":""$-8 to $8"",""Q2"":""$-48 to $48"",""Q3"":""No, the cost is always $1.00."",""Q4"":""Very motivated""}",,2349,,,,,,,,,,,,,,,,,
,survey-multi-choice,137173.0,0.0-1.0-1.0,,25742,"{""Q0"":""$-48 to $48"",""Q1"":""No, the cost is always $1.00."",""Q2"":""One time"",""Q3"":""The better I perform the higher my bonus will be."",""Q4"":""No, the structure of the web will be different each time.""}","{'Q0': '$-48 to $48', 'Q1': 'No, the cost is always $1.00.', 'Q2': 'There is no limit', 'Q3': 'The better I perform the higher my bonus will be.', 'Q4': 'No, the amount of cash at each node of the web may be different each time.'}",2325,,,,,,,,,,,,,,,,,
,survey-multi-choice,173980.0,0.0-1.1-1.1,,11587,"{""Q0"":""$-48 to $48"",""Q1"":""No, the cost is always $1.00."",""Q2"":""One time"",""Q3"":""The better I perform the higher my bonus will be."",""Q4"":""No, the amount of cash at each node of the web may be different each time.""}","{'Q0': '$-48 to $48', 'Q1': 'No, the cost is always $1.00.', 'Q2': 'There is no limit', 'Q3': 'The better I perform the higher my bonus will be.', 'Q4': 'No, the amount of cash at each node of the web may be different each time.'}",2325,,,,,,,,,,,,,,,,,
,survey-multi-choice,243087.0,0.0-1.2-1.2,,35692,"{""Q0"":""$-48 to $48"",""Q1"":""No, the cost is always $1.00."",""Q2"":""There is no limit"",""Q3"":""The better I perform the higher my bonus will be."",""Q4"":""No, the amount of cash at each node of the web may be different each time.""}","{'Q0': '$-48 to $48', 'Q1': 'No, the cost is always $1.00.', 'Q2': 'There is no limit', 'Q3': 'The better I perform the higher my bonus will be.', 'Q4': 'No, the amount of cash at each node of the web may be different each time.'}",2325,,,,,,,,,,,,,,,,,
,survey-multi-choice,766603.0,0.0-3.0-3.0,,23632,"{""Q0"":""$-4 to $4"",""Q1"":""$-8 to $8"",""Q2"":""$-48 to $48"",""Q3"":""No, the cost is always $1.00."",""Q4"":""Very motivated""}",,2325,,,,,,,,,,,,,,,,,
,survey-multi-choice,80125.0,0.0-1.0-1.0,,21260,"{""Q0"":""$-48 to $48"",""Q1"":""No, the cost is always $1.00."",""Q2"":""One time"",""Q3"":""The better I perform the higher my bonus will be."",""Q4"":""No, the amount of cash at each node of the web may be different each time.""}","{'Q0': '$-48 to $48', 'Q1': 'No, the cost is always $1.00.', 'Q2': 'There is no limit', 'Q3': 'The better I perform the higher my bonus will be.', 'Q4': 'No, the amount of cash at each node of the web may be different each time.'}",2240,,,,,,,,,,,,,,,,,
,survey-multi-choice,169971.0,0.0-1.1-1.1,,38912,"{""Q0"":""$-48 to $48"",""Q1"":""No, the cost is always $1.00."",""Q2"":""One time"",""Q3"":""I will receive a $1 bonus if I perform well, otherwise I will receive no bonus."",""Q4"":""No, the amount of cash at each node of the web may be different each time.""}","{'Q0': '$-48 to $48', 'Q1': 'No, the cost is always $1.00.', 'Q2': 'There is no limit', 'Q3': 'The better I perform the higher my bonus will be.', 'Q4': 'No, the amount of cash at each node of the web may be different each time.'}",2240,,,,,,,,,,,,,,,,,
,survey-multi-choice,227765.0,0.0-1.2-1.2,,17294,"{""Q0"":""$-48 to $48"",""Q1"":""No, the cost is always $1.00."",""Q2"":""There is no limit"",""Q3"":""The better I perform the higher my bonus will be."",""Q4"":""No, the amount of cash at each node of the web may be different each time.""}","{'Q0': '$-48 to $48', 'Q1': 'No, the cost is always $1.00.', 'Q2': 'There is no limit', 'Q3': 'The better I perform the higher my bonus will be.', 'Q4': 'No, the amount of cash at each node of the web may be different each time.'}",2240,,,,,,,,,,,,,,,,,
,survey-multi-choice,686837.0,0.0-3.0-3.0,,19569,"{""Q0"":""$-4 to $4"",""Q1"":""$-8 to $8"",""Q2"":""$-48 to $48"",""Q3"":""No, the cost is always $1.00."",""Q4"":""Very motivated""}",,2240,,,,,,,,,,,,,,,,,
,survey-multi-choice,190352.0,0.0-1.0-1.0,,41823,"{""Q0"":""$-48 to $48"",""Q1"":""No, the cost is always $1.00."",""Q2"":""There is no limit"",""Q3"":""The better I perform the higher my bonus will be."",""Q4"":""No, the structure of the web will be different each time.""}","{'Q0': '$-48 to $48', 'Q1': 'No, the cost is always $1.00.', 'Q2': 'There is no limit', 'Q3': 'The better I perform the higher my bonus will be.', 'Q4': 'No, the amount of cash at each node of the web may be different each time.'}",2241,,,,,,,,,,,,,,,,,
,survey-multi-choice,316407.0,0.0-1.1-1.1,,27993,"{""Q0"":""$-48 to $48"",""Q1"":""No, the cost is always $1.00."",""Q2"":""There is no limit"",""Q3"":""The better I perform the higher my bonus will be."",""Q4"":""No, the amount of cash at each node of the web may be different each time.""}","{'Q0': '$-48 to $48', 'Q1': 'No, the cost is always $1.00.', 'Q2': 'There is no limit', 'Q3': 'The better I perform the higher my bonus will be.', 'Q4': 'No, the amount of cash at each node of the web may be different each time.'}",2241,,,,,,,,,,,,,,,,,
,survey-multi-choice,1184320.0,0.0-3.0-3.0,,45893,"{""Q0"":""$-4 to $4"",""Q1"":""$-8 to $8"",""Q2"":""$-48 to $48"",""Q3"":""No, the cost is always $1.00."",""Q4"":""Very motivated""}",,2241,,,,,,,,,,,,,,,,,
,survey-multi-choice,199530.0,0.0-1.0-1.0,,55537,"{""Q0"":""$-48 to $48"",""Q1"":""No, the cost is always $1.00."",""Q2"":""There is no limit"",""Q3"":""The better I perform the higher my bonus will be."",""Q4"":""No, the amount of cash at each node of the web may be different each time.""}","{'Q0': '$-48 to $48', 'Q1': 'No, the cost is always $1.00.', 'Q2': 'There is no limit', 'Q3': 'The better I perform the higher my bonus will be.', 'Q4': 'No, the amount of cash at each node of the web may be different each time.'}",2242,,,,,,,,,,,,,,,,,
,survey-multi-choice,1019762.0,0.0-3.0-3.0,,60386,"{""Q0"":""$-4 to $4"",""Q1"":""$-8 to $8"",""Q2"":""$-48 to $48"",""Q3"":""No, the cost is always $1.00."",""Q4"":""Very motivated""}",,2242,,,,,,,,,,,,,,,,,
,survey-multi-choice,110388.0,0.0-1.0-1.0,,34433,"{""Q0"":""$-48 to $48"",""Q1"":""No, the cost is always $1.00."",""Q2"":""Three times"",""Q3"":""The better I perform the higher my bonus will be."",""Q4"":""No, the amount of cash at each node of the web may be different each time.""}","{'Q0': '$-48 to $48', 'Q1': 'No, the cost is always $1.00.', 'Q2': 'There is no limit', 'Q3': 'The better I perform the higher my bonus will be.', 'Q4': 'No, the amount of cash at each node of the web may be different each time.'}",2350,,,,,,,,,,,,,,,,,
,survey-multi-choice,277918.0,0.0-1.1-1.1,,84140,"{""Q0"":""$-48 to $48"",""Q1"":""No, the cost is always $1.00."",""Q2"":""There is no limit"",""Q3"":""The better I perform the higher my bonus will be."",""Q4"":""No, the amount of cash at each node of the web may be different each time.""}","{'Q0': '$-48 to $48', 'Q1': 'No, the cost is always $1.00.', 'Q2': 'There is no limit', 'Q3': 'The better I perform the higher my bonus will be.', 'Q4': 'No, the amount of cash at each node of the web may be different each time.'}",2350,,,,,,,,,,,,,,,,,
,survey-multi-choice,827712.0,0.0-3.0-3.0,,27967,"{""Q0"":""$-4 to $4"",""Q1"":""$-8 to $8"",""Q2"":""$-48 to $48"",""Q3"":""No, the cost is always $1.00."",""Q4"":""Very motivated""}",,2350,,,,,,,,,,,,,,,,,
,survey-multi-choice,435799.0,0.0-1.0-1.0,,116159,"{""Q0"":""$-48 to $48"",""Q1"":""No, the cost is always $1.00."",""Q2"":""One time"",""Q3"":""The better I perform the higher my bonus will be."",""Q4"":""No, the amount of cash at each node of the web may be different each time.""}","{'Q0': '$-48 to $48', 'Q1': 'No, the cost is always $1.00.', 'Q2': 'There is no limit', 'Q3': 'The better I perform the higher my bonus will be.', 'Q4': 'No, the amount of cash at each node of the web may be different each time.'}",2328,,,,,,,,,,,,,,,,,
,survey-multi-choice,500412.0,0.0-1.1-1.1,,46261,"{""Q0"":""$-48 to $48"",""Q1"":""No, the cost is always $1.00."",""Q2"":""There is no limit"",""Q3"":""The better I perform the higher my bonus will be."",""Q4"":""No, the amount of cash at each node of the web may be different each time.""}","{'Q0': '$-48 to $48', 'Q1': 'No, the cost is always $1.00.', 'Q2': 'There is no limit', 'Q3': 'The better I perform the higher my bonus will be.', 'Q4': 'No, the amount of cash at each node of the web may be different each time.'}",2328,,,,,,,,,,,,,,,,,
,survey-multi-choice,2628304.0,0.0-3.0-3.0,,1491815,"{""Q0"":""$-4 to $4"",""Q1"":""$-8 to $8"",""Q2"":""$-48 to $48"",""Q3"":""No, the cost is always $1.00."",""Q4"":""Very motivated""}",,2328,,,,,,,,,,,,,,,,,
,survey-multi-choice,149975.0,0.0-1.0-1.0,,25421,"{""Q0"":""$-48 to $48"",""Q1"":""No, the cost is always $1.00."",""Q2"":""One time"",""Q3"":""The better I perform the higher my bonus will be."",""Q4"":""No, the amount of cash at each node of the web may be different each time.""}","{'Q0': '$-48 to $48', 'Q1': 'No, the cost is always $1.00.', 'Q2': 'There is no limit', 'Q3': 'The better I perform the higher my bonus will be.', 'Q4': 'No, the amount of cash at each node of the web may be different each time.'}",2290,,,,,,,,,,,,,,,,,
,survey-multi-choice,269737.0,0.0-1.1-1.1,,69139,"{""Q0"":""$-48 to $48"",""Q1"":""No, the cost is always $1.00."",""Q2"":""There is no limit"",""Q3"":""The better I perform the higher my bonus will be."",""Q4"":""No, the amount of cash at each node of the web may be different each time.""}","{'Q0': '$-48 to $48', 'Q1': 'No, the cost is always $1.00.', 'Q2': 'There is no limit', 'Q3': 'The better I perform the higher my bonus will be.', 'Q4': 'No, the amount of cash at each node of the web may be different each time.'}",2290,,,,,,,,,,,,,,,,,
,survey-multi-choice,905614.0,0.0-3.0-3.0,,54843,"{""Q0"":""$-4 to $4"",""Q1"":""$-8 to $8"",""Q2"":""$-48 to $48"",""Q3"":""No, the cost is always $1.00."",""Q4"":""Very motivated""}",,2290,,,,,,,,,,,,,,,,,
,survey-multi-choice,82664.0,0.0-1.0-1.0,,20051,"{""Q0"":""$-48 to $48"",""Q1"":""No, the cost is always $1.00."",""Q2"":""There is no limit"",""Q3"":""The better I perform the higher my bonus will be."",""Q4"":""Yes.""}","{'Q0': '$-48 to $48', 'Q1': 'No, the cost is always $1.00.', 'Q2': 'There is no limit', 'Q3': 'The better I perform the higher my bonus will be.', 'Q4': 'No, the amount of cash at each node of the web may be different each time.'}",2291,,,,,,,,,,,,,,,,,
,survey-multi-choice,128020.0,0.0-1.1-1.1,,12349,"{""Q0"":""$-48 to $48"",""Q1"":""No, the cost is always $1.00."",""Q2"":""There is no limit"",""Q3"":""The better I perform the higher my bonus will be."",""Q4"":""No, the amount of cash at each node of the web may be different each time.""}","{'Q0': '$-48 to $48', 'Q1': 'No, the cost is always $1.00.', 'Q2': 'There is no limit', 'Q3': 'The better I perform the higher my bonus will be.', 'Q4': 'No, the amount of cash at each node of the web may be different each time.'}",2291,,,,,,,,,,,,,,,,,
,survey-multi-choice,561345.0,0.0-3.0-3.0,,18061,"{""Q0"":""$-4 to $4"",""Q1"":""$-8 to $8"",""Q2"":""$-48 to $48"",""Q3"":""No, the cost is always $1.00."",""Q4"":""Very motivated""}",,2291,,,,,,,,,,,,,,,,,
,survey-multi-choice,148738.0,0.0-1.0-1.0,,36516,"{""Q0"":""$-48 to $48"",""Q1"":""No, the cost is always $1.00."",""Q2"":""One time"",""Q3"":""The better I perform the higher my bonus will be."",""Q4"":""No, the amount of cash at each node of the web may be different each time.""}","{'Q0': '$-48 to $48', 'Q1': 'No, the cost is always $1.00.', 'Q2': 'There is no limit', 'Q3': 'The better I perform the higher my bonus will be.', 'Q4': 'No, the amount of cash at each node of the web may be different each time.'}",2243,,,,,,,,,,,,,,,,,
,survey-multi-choice,201946.0,0.0-1.1-1.1,,17508,"{""Q0"":""$-48 to $48"",""Q1"":""No, the cost is always $1.00."",""Q2"":""There is no limit"",""Q3"":""The better I perform the higher my bonus will be."",""Q4"":""No, the amount of cash at each node of the web may be different each time.""}","{'Q0': '$-48 to $48', 'Q1': 'No, the cost is always $1.00.', 'Q2': 'There is no limit', 'Q3': 'The better I perform the higher my bonus will be.', 'Q4': 'No, the amount of cash at each node of the web may be different each time.'}",2243,,,,,,,,,,,,,,,,,
,survey-multi-choice,849139.0,0.0-3.0-3.0,,56134,"{""Q0"":""$-4 to $4"",""Q1"":""$-8 to $8"",""Q2"":""$-48 to $48"",""Q3"":""No, the cost is always $1.00."",""Q4"":""Very motivated""}",,2243,,,,,,,,,,,,,,,,,
,survey-multi-choice,126743.0,0.0-1.0-1.0,,24163,"{""Q0"":""$-48 to $48"",""Q1"":""No, the cost is always $1.00."",""Q2"":""One time"",""Q3"":""The better I perform the higher my bonus will be."",""Q4"":""No, the amount of cash at each node of the web may be different each time.""}","{'Q0': '$-48 to $48', 'Q1': 'No, the cost is always $1.00.', 'Q2': 'There is no limit', 'Q3': 'The better I perform the higher my bonus will be.', 'Q4': 'No, the amount of cash at each node of the web may be different each time.'}",2244,,,,,,,,,,,,,,,,,
,survey-multi-choice,164870.0,0.0-1.1-1.1,,8124,"{""Q0"":""$-48 to $48"",""Q1"":""No, the cost is always $1.00."",""Q2"":""There is no limit"",""Q3"":""The better I perform the higher my bonus will be."",""Q4"":""No, the amount of cash at each node of the web may be different each time.""}","{'Q0': '$-48 to $48', 'Q1': 'No, the cost is always $1.00.', 'Q2': 'There is no limit', 'Q3': 'The better I perform the higher my bonus will be.', 'Q4': 'No, the amount of cash at each node of the web may be different each time.'}",2244,,,,,,,,,,,,,,,,,
,survey-multi-choice,763097.0,0.0-3.0-3.0,,22038,"{""Q0"":""$-4 to $4"",""Q1"":""$-8 to $8"",""Q2"":""$-48 to $48"",""Q3"":""No, the cost is always $1.00."",""Q4"":""Very motivated""}",,2244,,,,,,,,,,,,,,,,,
,survey-multi-choice,188678.0,0.0-1.0-1.0,,42075,"{""Q0"":""$-48 to $48"",""Q1"":""No, the cost is always $1.00."",""Q2"":""One time"",""Q3"":""The better I perform the higher my bonus will be."",""Q4"":""No, the amount of cash at each node of the web may be different each time.""}","{'Q0': '$-48 to $48', 'Q1': 'No, the cost is always $1.00.', 'Q2': 'There is no limit', 'Q3': 'The better I perform the higher my bonus will be.', 'Q4': 'No, the amount of cash at each node of the web may be different each time.'}",2355,,,,,,,,,,,,,,,,,
,survey-multi-choice,303962.0,0.0-1.1-1.1,,36345,"{""Q0"":""$-48 to $48"",""Q1"":""No, the cost is always $1.00."",""Q2"":""There is no limit"",""Q3"":""The better I perform the higher my bonus will be."",""Q4"":""No, the amount of cash at each node of the web may be different each time.""}","{'Q0': '$-48 to $48', 'Q1': 'No, the cost is always $1.00.', 'Q2': 'There is no limit', 'Q3': 'The better I perform the higher my bonus will be.', 'Q4': 'No, the amount of cash at each node of the web may be different each time.'}",2355,,,,,,,,,,,,,,,,,
