success,trial_type,time_elapsed,internal_node_id,view_history,rt,responses,correct,pid,revealed_states,num_clicks_accrued,state_rewards,trial_id,block,trial_index,score,simulation_mode,rewards,path,actions,action_times,queries,displayed_time,trial_time,stimulus,button_pressed
,instructions,18737,0.0-1.0-0.0,"[{""page_index"":0,""viewing_time"":2830},{""page_index"":1,""viewing_time"":2260},{""page_index"":2,""viewing_time"":2246},{""page_index"":3,""viewing_time"":1506},{""page_index"":4,""viewing_time"":1816},{""page_index"":5,""viewing_time"":861},{""page_index"":6,""viewing_time"":1787},{""page_index"":7,""viewing_time"":1370}]",14676.0,,,2371,,,,,,,,,,,,,,,,,
,instructions,41106,0.0-1.0-0.0,"[{""page_index"":0,""viewing_time"":5763},{""page_index"":1,""viewing_time"":7610},{""page_index"":2,""viewing_time"":2255},{""page_index"":3,""viewing_time"":1254},{""page_index"":4,""viewing_time"":3420},{""page_index"":5,""viewing_time"":11741},{""page_index"":6,""viewing_time"":3354},{""page_index"":7,""viewing_time"":2799}]",38197,,,1731,,,,,,,,,,,,,,,,,
,instructions,119144,0.0-1.1-0.1,"[{""page_index"":0,""viewing_time"":2637},{""page_index"":1,""viewing_time"":3732},{""page_index"":2,""viewing_time"":10369},{""page_index"":3,""viewing_time"":7478},{""page_index"":4,""viewing_time"":5468},{""page_index"":5,""viewing_time"":2222},{""page_index"":6,""viewing_time"":14945},{""page_index"":7,""viewing_time"":2025}]",48877,,,1731,,,,,,,,,,,,,,,,,
,instructions,187128,0.0-3.0-0.0,"[{""page_index"":0,""viewing_time"":3830}]",3831,,,1731,,,,,,,,,,,,,,,,,
,instructions,17563,0.0-1.0-0.0,"[{""page_index"":0,""viewing_time"":1407},{""page_index"":1,""viewing_time"":2494},{""page_index"":2,""viewing_time"":2601},{""page_index"":3,""viewing_time"":1374},{""page_index"":4,""viewing_time"":1905},{""page_index"":5,""viewing_time"":1657},{""page_index"":6,""viewing_time"":1744},{""page_index"":7,""viewing_time"":1466}]",14650.0,,,2365,,,,,,,,,,,,,,,,,
,instructions,123558,0.0-1.1-0.1,"[{""page_index"":0,""viewing_time"":18306},{""page_index"":1,""viewing_time"":9586},{""page_index"":2,""viewing_time"":7281},{""page_index"":3,""viewing_time"":9563},{""page_index"":4,""viewing_time"":6144},{""page_index"":5,""viewing_time"":7026},{""page_index"":6,""viewing_time"":8864},{""page_index"":7,""viewing_time"":7690}]",74461.0,,,2365,,,,,,,,,,,,,,,,,
,instructions,440923,0.0-1.2-0.2,"[{""page_index"":0,""viewing_time"":2818},{""page_index"":1,""viewing_time"":1955},{""page_index"":2,""viewing_time"":1780},{""page_index"":3,""viewing_time"":2407},{""page_index"":4,""viewing_time"":1646},{""page_index"":5,""viewing_time"":7087},{""page_index"":6,""viewing_time"":3090},{""page_index"":7,""viewing_time"":1855}]",22639.0,,,2365,,,,,,,,,,,,,,,,,
,instructions,467757,0.0-1.3-0.3,"[{""page_index"":0,""viewing_time"":1287},{""page_index"":1,""viewing_time"":1757},{""page_index"":2,""viewing_time"":1183},{""page_index"":3,""viewing_time"":6275},{""page_index"":4,""viewing_time"":1158},{""page_index"":5,""viewing_time"":793},{""page_index"":6,""viewing_time"":1281},{""page_index"":7,""viewing_time"":1288}]",15024.0,,,2365,,,,,,,,,,,,,,,,,
,instructions,84264,0.0-1.0-0.0,"[{""page_index"":0,""viewing_time"":9519},{""page_index"":1,""viewing_time"":15289},{""page_index"":2,""viewing_time"":11066},{""page_index"":3,""viewing_time"":11929},{""page_index"":4,""viewing_time"":10281},{""page_index"":5,""viewing_time"":7049},{""page_index"":6,""viewing_time"":12801},{""page_index"":7,""viewing_time"":3817}]",81751,,,2372,,,,,,,,,,,,,,,,,
,instructions,120661,0.0-3.0-0.0,"[{""page_index"":0,""viewing_time"":11723}]",11723,,,2372,,,,,,,,,,,,,,,,,
,instructions,64096,0.0-1.0-0.0,"[{""page_index"":0,""viewing_time"":3613},{""page_index"":1,""viewing_time"":2144},{""page_index"":2,""viewing_time"":1231},{""page_index"":3,""viewing_time"":1024},{""page_index"":4,""viewing_time"":1240},{""page_index"":5,""viewing_time"":945},{""page_index"":6,""viewing_time"":6527},{""page_index"":7,""viewing_time"":9064},{""page_index"":6,""viewing_time"":11536},{""page_index"":5,""viewing_time"":5120},{""page_index"":4,""viewing_time"":4400},{""page_index"":3,""viewing_time"":5574},{""page_index"":2,""viewing_time"":4282},{""page_index"":3,""viewing_time"":962},{""page_index"":4,""viewing_time"":701},{""page_index"":5,""viewing_time"":586},{""page_index"":6,""viewing_time"":903},{""page_index"":7,""viewing_time"":929}]",60782,,,2373,,,,,,,,,,,,,,,,,
,instructions,118437,0.0-3.0-0.0,"[{""page_index"":0,""viewing_time"":4879}]",4879,,,2373,,,,,,,,,,,,,,,,,
,instructions,118366,0.0-1.0-0.0,"[{""page_index"":0,""viewing_time"":5043},{""page_index"":1,""viewing_time"":19231},{""page_index"":2,""viewing_time"":19500},{""page_index"":3,""viewing_time"":11559},{""page_index"":4,""viewing_time"":12889},{""page_index"":5,""viewing_time"":9408},{""page_index"":6,""viewing_time"":15704},{""page_index"":7,""viewing_time"":1696}]",95031,,,1737,,,,,,,,,,,,,,,,,
,instructions,193437,0.0-1.1-0.1,"[{""page_index"":0,""viewing_time"":1917},{""page_index"":1,""viewing_time"":9383},{""page_index"":2,""viewing_time"":5048},{""page_index"":3,""viewing_time"":2504},{""page_index"":4,""viewing_time"":1448},{""page_index"":5,""viewing_time"":1256},{""page_index"":6,""viewing_time"":4120},{""page_index"":7,""viewing_time"":1664}]",27341,,,1737,,,,,,,,,,,,,,,,,
,instructions,285389,0.0-1.2-0.2,"[{""page_index"":0,""viewing_time"":2909},{""page_index"":1,""viewing_time"":12648},{""page_index"":2,""viewing_time"":9576},{""page_index"":3,""viewing_time"":10824},{""page_index"":4,""viewing_time"":4136},{""page_index"":5,""viewing_time"":2775},{""page_index"":6,""viewing_time"":1457},{""page_index"":7,""viewing_time"":1056}]",45381,,,1737,,,,,,,,,,,,,,,,,
,instructions,297793,0.0-3.0-0.0,"[{""page_index"":0,""viewing_time"":3576}]",3577,,,1737,,,,,,,,,,,,,,,,,
,instructions,987862,0.0-1.0-0.0,"[{""page_index"":0,""viewing_time"":9703},{""page_index"":1,""viewing_time"":391457},{""page_index"":2,""viewing_time"":31379},{""page_index"":3,""viewing_time"":10508},{""page_index"":4,""viewing_time"":9450},{""page_index"":5,""viewing_time"":16438},{""page_index"":6,""viewing_time"":455399},{""page_index"":7,""viewing_time"":25823}]",950158,,,2368,,,,,,,,,,,,,,,,,
,instructions,1163763,0.0-1.1-0.1,"[{""page_index"":0,""viewing_time"":8414},{""page_index"":1,""viewing_time"":7843},{""page_index"":2,""viewing_time"":9760},{""page_index"":3,""viewing_time"":73136},{""page_index"":4,""viewing_time"":14386},{""page_index"":5,""viewing_time"":14626},{""page_index"":6,""viewing_time"":11047},{""page_index"":7,""viewing_time"":4342}]",143555,,,2368,,,,,,,,,,,,,,,,,
,instructions,1221007,0.0-3.0-0.0,"[{""page_index"":0,""viewing_time"":33280}]",33280,,,2368,,,,,,,,,,,,,,,,,
,instructions,34730,0.0-1.0-0.0,"[{""page_index"":0,""viewing_time"":3625},{""page_index"":1,""viewing_time"":3051},{""page_index"":2,""viewing_time"":6358},{""page_index"":3,""viewing_time"":4143},{""page_index"":4,""viewing_time"":2487},{""page_index"":5,""viewing_time"":5759},{""page_index"":6,""viewing_time"":3795},{""page_index"":7,""viewing_time"":1832}]",31051,,,2370,,,,,,,,,,,,,,,,,
,instructions,81718,0.0-1.1-0.1,"[{""page_index"":0,""viewing_time"":1124},{""page_index"":1,""viewing_time"":2632},{""page_index"":2,""viewing_time"":2756},{""page_index"":3,""viewing_time"":4878},{""page_index"":4,""viewing_time"":2798},{""page_index"":5,""viewing_time"":1461},{""page_index"":6,""viewing_time"":6495},{""page_index"":7,""viewing_time"":1486}]",23630,,,2370,,,,,,,,,,,,,,,,,
,instructions,111531,0.0-3.0-0.0,"[{""page_index"":0,""viewing_time"":5833}]",5833,,,2370,,,,,,,,,,,,,,,,,
,instructions,72479,0.0-1.0-0.0,"[{""page_index"":0,""viewing_time"":3859},{""page_index"":1,""viewing_time"":13986},{""page_index"":2,""viewing_time"":10861},{""page_index"":3,""viewing_time"":6733},{""page_index"":4,""viewing_time"":7506},{""page_index"":5,""viewing_time"":5351},{""page_index"":6,""viewing_time"":5543},{""page_index"":7,""viewing_time"":5074}]",58914,,,1754,,,,,,,,,,,,,,,,,
,instructions,163518,0.0-1.1-0.1,"[{""page_index"":0,""viewing_time"":1596},{""page_index"":1,""viewing_time"":12633},{""page_index"":2,""viewing_time"":16611},{""page_index"":3,""viewing_time"":7977},{""page_index"":4,""viewing_time"":5498},{""page_index"":5,""viewing_time"":4737},{""page_index"":6,""viewing_time"":10800},{""page_index"":7,""viewing_time"":1852}]",61704,,,1754,,,,,,,,,,,,,,,,,
,instructions,192466,0.0-3.0-0.0,"[{""page_index"":0,""viewing_time"":3184}]",3185,,,1754,,,,,,,,,,,,,,,,,
,instructions,59262,0.0-1.0-0.0,"[{""page_index"":0,""viewing_time"":3918},{""page_index"":1,""viewing_time"":8003},{""page_index"":2,""viewing_time"":5814},{""page_index"":3,""viewing_time"":6155},{""page_index"":4,""viewing_time"":4848},{""page_index"":5,""viewing_time"":5860},{""page_index"":6,""viewing_time"":8517},{""page_index"":7,""viewing_time"":3767}]",46885,,,2367,,,,,,,,,,,,,,,,,
,instructions,97672,0.0-3.0-0.0,"[{""page_index"":0,""viewing_time"":7428}]",7429,,,2367,,,,,,,,,,,,,,,,,
,instructions,53589,0.0-1.0-0.0,"[{""page_index"":0,""viewing_time"":3753},{""page_index"":1,""viewing_time"":9853},{""page_index"":2,""viewing_time"":4691},{""page_index"":3,""viewing_time"":5602},{""page_index"":4,""viewing_time"":7044},{""page_index"":5,""viewing_time"":5042},{""page_index"":6,""viewing_time"":7733},{""page_index"":7,""viewing_time"":1482}]",45200,,,2374,,,,,,,,,,,,,,,,,
,instructions,68816,0.0-3.0-0.0,"[{""page_index"":0,""viewing_time"":2028}]",2029,,,2374,,,,,,,,,,,,,,,,,
