success,trial_type,time_elapsed,internal_node_id,view_history,rt,responses,correct,pid,revealed_states,num_clicks_accrued,state_rewards,trial_id,block,trial_index,score,simulation_mode,rewards,path,actions,action_times,queries,displayed_time,trial_time,stimulus,button_pressed
,mouselab-mdp,203910,0.0-3.0-1.0-0.0,,"[10945, 524, 278]",,,1731,[],"[0, 0, 0, 0, 0, 0, 0, 0, 0, 0, 0, 0, 0]","['', -2, -8, 24, 24, 2, -4, 24, -48, -2, -4, -24, -48]",7.037128295931229e+18,training,0.0,6.0,"[None, None, None]","[-2, -8, 24]","['0', '0', '1', '2', '3']","['up', 'up', 'right']","[12409, 13432, 14201]","{'click': {'state': {'target': ['9', '2', '6', '12', '4', '3', '8', '7'], 'time': [3479, 4670, 5524, 6971, 8234, 9113, 9888, 10569]}, 'edge': {'target': [], 'time': []}}, 'mouseover': {'state': {'target': ['0', '9', '1', '2', '1', '5', '6', '5', '0', '10', '12', '4', '1', '3', '8', '7'], 'time': [2723, 2923, 4036, 4453, 5019, 5170, 5253, 6286, 6352, 6652, 6853, 8052, 8736, 9003, 9753, 10453]}, 'edge': {'target': [], 'time': []}}, 'mouseout': {'state': {'target': ['5', '0', '0', '9', '1', '2', '1', '5', '6', '5', '0', '9', '10', '12', '9', '4', '1', '3', '6', '8', '6', '7'], 'time': [420, 2336, 2742, 3905, 4170, 4986, 5053, 5220, 6257, 6320, 6386, 6503, 6719, 7303, 7836, 8620, 8869, 9406, 9637, 10253, 10386, 10937]}, 'edge': {'target': [], 'time': []}}}",14.74,16519.0,,
,mouselab-mdp,214335,0.0-3.0-1.0-1.0,,"[2117, 158, 155]",,,1731,[],"[0, 0, 0, 0, 0, 0, 0, 0, 0, 0, 0, 0, 0]","['', 2, -8, -24, 48, 4, 4, -48, 24, 2, -4, -24, 24]",1.466645676459689e+18,training,1.0,41.0,"[None, None, None]","[2, -8, 48]","['0', '0', '1', '2', '4']","['up', 'up', 'left']","[3231, 3888, 4544]","{'click': {'state': {'target': ['4'], 'time': [1723]}, 'edge': {'target': [], 'time': []}}, 'mouseover': {'state': {'target': ['0', '4'], 'time': [1324, 1637]}, 'edge': {'target': [], 'time': []}}, 'mouseout': {'state': {'target': ['0', '0', '4', '1', '9'], 'time': [1133, 1338, 2037, 6106, 9721]}, 'edge': {'target': [], 'time': []}}}",9.11,10345.0,,
,mouselab-mdp,225767,0.0-3.0-1.0-2.0,,"[1195, 176, 181]",,,1731,[],"[0, 0, 0, 0, 0, 0, 0, 0, 0, 0, 0, 0, 0]","['', -4, -4, 48, -48, -2, -8, 48, 48, -4, -4, -48, 48]",7.16068933233386e+18,training,2.0,39.0,"[None, None, None]","[-4, -4, 48]","['0', '0', '9', '10', '12']","['left', 'left', 'down']","[2036, 2747, 3420]","{'click': {'state': {'target': ['12'], 'time': [1309]}, 'edge': {'target': [], 'time': []}}, 'mouseover': {'state': {'target': ['0', '9', '12'], 'time': [975, 1003, 1152]}, 'edge': {'target': [], 'time': []}}, 'mouseout': {'state': {'target': ['0', '0', '9', '12'], 'time': [846, 985, 1035, 4421]}, 'edge': {'target': [], 'time': []}}}",9.84,11341.0,,
,mouselab-mdp,235517,0.0-3.0-1.0-3.0,,"[6151, 70, 75]",,,1731,[],"[0, 0, 0, 0, 0, 0, 0, 0, 0, 0, 0, 0, 0]","['', -2, 4, 24, 24, -4, 8, 48, 24, -4, 8, -48, -24]",-3.127342074357005e+18,training,3.0,46.0,"[None, None, None]","[-4, 8, 48]","['0', '0', '5', '6', '7']","['right', 'right', 'up']","[6858, 7426, 8003]","{'click': {'state': {'target': ['8', '3', '12', '11', '4', '7'], 'time': [1365, 2435, 3861, 4620, 5093, 6272]}, 'edge': {'target': [], 'time': []}}, 'mouseover': {'state': {'target': ['0', '8', '7', '3', '2', '4', '10', '12', '12', '10', '11', '4', '1', '5', '6', '7'], 'time': [870, 1071, 1970, 2303, 2904, 2953, 3303, 3354, 3741, 4305, 4420, 4970, 5496, 5554, 5671, 6141]}, 'edge': {'target': [], 'time': []}}, 'mouseout': {'state': {'target': ['0', '0', '8', '7', '3', '2', '4', '10', '12', '12', '10', '11', '4', '1', '5', '6', '7', '6'], 'time': [636, 970, 1837, 2187, 2887, 2937, 3255, 3320, 3475, 4172, 4354, 4887, 5476, 5504, 5571, 5705, 6554, 8770]}, 'edge': {'target': [], 'time': []}}}",8.71,9658.0,,
,mouselab-mdp,244591,0.0-3.0-1.0-4.0,,"[3461, 19, 21]",,,1731,[],"[0, 0, 0, 0, 0, 0, 0, 0, 0, 0, 0, 0, 0]","['', 2, -4, -24, -24, -4, 4, 24, -48, 4, 8, 48, 48]",-4.2504753121492997e+18,training,4.0,56.0,"[None, None, None]","[4, 8, 48]","['0', '0', '9', '10', '12']","['left', 'left', 'down']","[4185, 4713, 5232]","{'click': {'state': {'target': ['4', '7', '8', '12'], 'time': [1486, 2138, 2731, 3475]}, 'edge': {'target': [], 'time': []}}, 'mouseover': {'state': {'target': ['1', '2', '4', '7', '6', '8', '12', '10', '9'], 'time': [1090, 1156, 1459, 2006, 2457, 2541, 3390, 3790, 4123]}, 'edge': {'target': [], 'time': []}}, 'mouseout': {'state': {'target': ['0', '1', '2', '4', '7', '6', '8', '12', '10', '9'], 'time': [572, 1124, 1256, 1756, 2428, 2508, 3073, 3757, 3857, 6010]}, 'edge': {'target': [], 'time': []}}}",8.73,9017.0,,
,mouselab-mdp,254094,0.0-3.0-1.0-5.0,,"[2142, 59, 77]",,,1731,[],"[0, 0, 0, 0, 0, 0, 0, 0, 0, 0, 0, 0, 0]","['', -2, 8, 48, 24, 4, 8, 48, 48, -4, 4, 24, 24]",8.067169575405887e+17,training,5.0,52.0,"[None, None, None]","[-2, 8, 48]","['0', '0', '1', '2', '3']","['up', 'up', 'right']","[3151, 3727, 4311]","{'click': {'state': {'target': ['12', '3'], 'time': [1808, 2403]}, 'edge': {'target': [], 'time': []}}, 'mouseover': {'state': {'target': ['9', '12', '9', '1', '3', '2'], 'time': [1426, 1743, 2060, 2142, 2242, 2759]}, 'edge': {'target': [], 'time': []}}, 'mouseout': {'state': {'target': ['0', '9', '12', '9', '1', '3', '2', '5'], 'time': [878, 1442, 1993, 2092, 2176, 2742, 2942, 5192]}, 'edge': {'target': [], 'time': []}}}",9.01,9423.0,,
,mouselab-mdp,263187,0.0-3.0-1.0-6.0,,"[1127, 98, 90]",,,1731,[],"[0, 0, 0, 0, 0, 0, 0, 0, 0, 0, 0, 0, 0]","['', 4, 8, 48, 48, -4, -8, -48, 24, 4, 8, 24, 24]",-5.73655695108881e+18,training,6.0,59.0,"[None, None, None]","[4, 8, 48]","['0', '0', '1', '2', '3']","['up', 'up', 'right']","[1720, 2319, 2911]","{'click': {'state': {'target': ['3'], 'time': [1116]}, 'edge': {'target': [], 'time': []}}, 'mouseover': {'state': {'target': ['1', '3'], 'time': [864, 998]}, 'edge': {'target': [], 'time': []}}, 'mouseout': {'state': {'target': ['0', '1', '3', '8', '5'], 'time': [791, 913, 1382, 7548, 7764]}, 'edge': {'target': [], 'time': []}}}",8.59,9019.0,,
,mouselab-mdp,273887,0.0-3.0-1.0-7.0,,"[1809, 77, 19]",,,1731,[],"[0, 0, 0, 0, 0, 0, 0, 0, 0, 0, 0, 0, 0]","['', -4, -8, 48, -48, -2, -8, 48, 24, -2, 8, 24, -24]",6.221411054408101e+18,training,7.0,35.0,"[None, None, None]","[-4, -8, 48]","['0', '0', '1', '2', '3']","['up', 'up', 'right']","[2525, 3102, 3623]","{'click': {'state': {'target': ['3'], 'time': [1927]}, 'edge': {'target': [], 'time': []}}, 'mouseover': {'state': {'target': ['3'], 'time': [1768]}, 'edge': {'target': [], 'time': []}}, 'mouseout': {'state': {'target': ['0', '3', '7'], 'time': [1121, 8651, 8935]}, 'edge': {'target': [], 'time': []}}}",9.72,10622.0,,
,mouselab-mdp,284078,0.0-3.0-1.0-8.0,,"[2435, 75, 107]",,,1731,[],"[0, 0, 0, 0, 0, 0, 0, 0, 0, 0, 0, 0, 0]","['', 2, -4, 48, -48, 2, -8, 24, -24, -4, -8, 24, -24]",-8.977351099475699e+18,training,8.0,43.0,"[None, None, None]","[2, -4, 48]","['0', '0', '1', '2', '3']","['up', 'up', 'right']","[3153, 3743, 4360]","{'click': {'state': {'target': ['12', '4', '3'], 'time': [1220, 1893, 2495]}, 'edge': {'target': [], 'time': []}}, 'mouseover': {'state': {'target': ['9', '10', '12', '9', '4', '2', '3'], 'time': [968, 1000, 1067, 1617, 1784, 2210, 2283]}, 'edge': {'target': [], 'time': []}}, 'mouseout': {'state': {'target': ['0', '9', '10', '12', '9', '4', '2', '3', '6'], 'time': [532, 985, 1017, 1534, 1634, 2168, 2250, 2684, 5251]}, 'edge': {'target': [], 'time': []}}}",8.72,10096.0,,
,mouselab-mdp,293215,0.0-3.0-1.0-9.0,,"[4134, 51, 64]",,,1731,[],"[0, 0, 0, 0, 0, 0, 0, 0, 0, 0, 0, 0, 0]","['', 2, 4, -24, 24, 4, -8, -48, 48, 2, 4, -48, -24]",-6.74953611421507e+18,training,9.0,39.0,"[None, None, None]","[4, -8, 48]","['0', '0', '5', '6', '8']","['right', 'right', 'down']","[4883, 5434, 6018]","{'click': {'state': {'target': ['3', '12', '4', '7', '8'], 'time': [1260, 2090, 2712, 3663, 4255]}, 'edge': {'target': [], 'time': []}}, 'mouseover': {'state': {'target': ['1', '3', '9', '12', '4', '1', '7', '6', '8'], 'time': [995, 1111, 1745, 2028, 2561, 3128, 3587, 4012, 4132]}, 'edge': {'target': [], 'time': []}}, 'mouseout': {'state': {'target': ['0', '1', '3', '9', '12', '4', '1', '7', '6', '8'], 'time': [628, 1028, 1679, 1762, 2396, 3066, 3161, 3994, 4061, 4583]}, 'edge': {'target': [], 'time': []}}}",8.75,9043.0,,
,mouselab-mdp,305430,0.0-3.0-1.0-10.0,,"[1065, 21, 418]",,,1731,[],"[0, 0, 0, 0, 0, 0, 0, 0, 0, 0, 0, 0, 0]","['', -4, 8, 48, -48, -4, -4, -48, 48, -2, 8, 24, 48]",-4.689310195682358e+18,training,10.0,51.0,"[None, None, None]","[-4, 8, 48]","['0', '0', '1', '2', '3']","['up', 'up', 'right']","[1793, 2304, 3240]","{'click': {'state': {'target': ['3'], 'time': [1184]}, 'edge': {'target': [], 'time': []}}, 'mouseover': {'state': {'target': ['3', '1'], 'time': [1082, 1466]}, 'edge': {'target': [], 'time': []}}, 'mouseout': {'state': {'target': ['0', '3', '1'], 'time': [798, 1435, 1517]}, 'edge': {'target': [], 'time': []}}}",9.73,12145.0,,
,mouselab-mdp,646241,0.0-3.0-1.0-11.0,,"[3337, 20, 34]",,,1731,[],"[0, 0, 0, 0, 0, 0, 0, 0, 0, 0, 0, 0, 0]","['', -2, 8, 24, -48, -4, 4, -48, -48, -4, 8, 24, 48]",6.73604779986745e+18,training,11.0,48.0,"[None, None, None]","[-4, 8, 48]","['0', '0', '9', '10', '12']","['left', 'left', 'down']","[4319, 4870, 5440]","{'click': {'state': {'target': ['4', '8', '7', '12'], 'time': [1601, 2422, 2965, 3686]}, 'edge': {'target': [], 'time': []}}, 'mouseover': {'state': {'target': ['1', '2', '4', '1', '5', '8', '6', '7', '5', '12', '10', '11', '9'], 'time': [1197, 1298, 1548, 1964, 2031, 2265, 2765, 2849, 3248, 3531, 3900, 4015, 4314]}, 'edge': {'target': [], 'time': []}}, 'mouseout': {'state': {'target': ['1', '2', '4', '1', '5', '8', '6', '7', '5', '12', '10', '11', '9', '5'], 'time': [1264, 1364, 1931, 1998, 2083, 2733, 2797, 3222, 3265, 3867, 3965, 4231, 4547, 6682]}, 'edge': {'target': [], 'time': []}}}",337.98,340738.0,,
,mouselab-mdp,655725,0.0-3.0-1.0-12.0,,"[5319, 698, 138]",,,1731,[],"[0, 0, 0, 0, 0, 0, 0, 0, 0, 0, 0, 0, 0]","['', 2, -4, -24, -48, 4, -8, 48, -48, 2, -8, 48, -48]",2.735284467270542e+18,training,12.0,40.0,"[None, None, None]","[4, -8, 48]","['0', '0', '5', '6', '7']","['right', 'right', 'up']","[6081, 7280, 7920]","{'click': {'state': {'target': ['3', '12', '4', '7'], 'time': [1947, 3109, 4167, 5005]}, 'edge': {'target': [], 'time': []}}, 'mouseover': {'state': {'target': ['1', '3', '1', '9', '12', '12', '4', '4', '1', '6', '6', '7', '6', '8'], 'time': [1330, 1463, 2596, 2647, 2680, 2948, 3663, 3996, 4481, 4598, 4815, 4897, 5247, 5430]}, 'edge': {'target': [], 'time': []}}, 'mouseout': {'state': {'target': ['0', '1', '3', '1', '9', '12', '12', '4', '4', '1', '6', '6', '7', '6', '8'], 'time': [1247, 1347, 2565, 2614, 2663, 2730, 3496, 3779, 4431, 4498, 4680, 4864, 5202, 5297, 5680]}, 'edge': {'target': [], 'time': []}}}",8.76,9415.0,,
,mouselab-mdp,665966,0.0-3.0-1.0-13.0,,"[2405, 39, 23]",,,1731,[],"[0, 0, 0, 0, 0, 0, 0, 0, 0, 0, 0, 0, 0]","['', -2, 4, 24, -48, 4, 8, 48, -24, 2, -4, 24, 48]",2.9113856902925153e+18,training,13.0,43.0,"[None, None, None]","[2, -4, 48]","['0', '0', '9', '10', '12']","['left', 'left', 'down']","[3244, 3820, 4371]","{'click': {'state': {'target': ['3', '4', '12'], 'time': [1440, 2167, 2736]}, 'edge': {'target': [], 'time': []}}, 'mouseover': {'state': {'target': ['1', '3', '2', '4', '10', '12'], 'time': [1062, 1329, 1979, 2029, 2513, 2595]}, 'edge': {'target': [], 'time': []}}, 'mouseout': {'state': {'target': ['8', '0', '0', '1', '3', '2', '4', '10'], 'time': [365, 479, 663, 1113, 1629, 1996, 2379, 2546]}, 'edge': {'target': [], 'time': []}}}",9.84,10187.0,,
,mouselab-mdp,675071,0.0-3.0-1.0-14.0,,"[2408, 130, 89]",,,1731,[],"[0, 0, 0, 0, 0, 0, 0, 0, 0, 0, 0, 0, 0]","['', -2, 8, 24, 48, 2, 4, -24, 24, 4, 8, 48, 24]",2.790125680448452e+18,training,14.0,52.0,"[None, None, None]","[-2, 8, 48]","['0', '0', '1', '2', '4']","['up', 'up', 'left']","[3100, 3732, 4339]","{'click': {'state': {'target': ['12', '4'], 'time': [1079, 1845]}, 'edge': {'target': [], 'time': []}}, 'mouseover': {'state': {'target': ['9', '12', '9', '4', '2', '3'], 'time': [832, 965, 1432, 1582, 2048, 2149]}, 'edge': {'target': [], 'time': []}}, 'mouseout': {'state': {'target': ['12', '9', '0', '9', '12', '9', '4', '2', '3'], 'time': [132, 498, 816, 849, 1382, 1465, 1999, 2098, 2501]}, 'edge': {'target': [], 'time': []}}}",8.69,9044.0,,
,mouselab-mdp,684255,0.0-3.0-1.0-15.0,,"[2348, 3, 73]",,,1731,[],"[0, 0, 0, 0, 0, 0, 0, 0, 0, 0, 0, 0, 0]","['', 2, 8, -48, -48, -4, 8, 24, 24, -2, 8, -24, 48]",-3.2359844448818867e+18,training,15.0,52.0,"[None, None, None]","[-2, 8, 48]","['0', '0', '9', '10', '12']","['left', 'left', 'down']","[3145, 3667, 4258]","{'click': {'state': {'target': ['3', '12'], 'time': [1330, 2245]}, 'edge': {'target': [], 'time': []}}, 'mouseover': {'state': {'target': ['3', '1', '9', '12', '12', '9', '9'], 'time': [1209, 1577, 1627, 1676, 2109, 2526, 2827]}, 'edge': {'target': [], 'time': []}}, 'mouseout': {'state': {'target': ['0', '0', '3', '1', '9', '12', '12', '9', '9'], 'time': [458, 993, 1543, 1594, 1644, 1843, 2476, 2576, 2909]}, 'edge': {'target': [], 'time': []}}}",8.80,9105.0,,
,mouselab-mdp,694446,0.0-3.0-1.0-16.0,,"[4550, 54, 68]",,,1731,[],"[0, 0, 0, 0, 0, 0, 0, 0, 0, 0, 0, 0, 0]","['', -2, 8, -24, -24, -2, 4, -48, 24, -4, -8, 48, -48]",5.44134319392284e+18,training,16.0,30.0,"[None, None, None]","[-4, -8, 48]","['0', '0', '9', '10', '11']","['left', 'left', 'up']","[5304, 5857, 6441]","{'click': {'state': {'target': ['7', '12', '4', '3', '8', '11'], 'time': [1386, 2096, 2709, 3520, 4087, 4863]}, 'edge': {'target': [], 'time': []}}, 'mouseover': {'state': {'target': ['5', '7', '6', '5', '12', '4', '1', '3', '8', '9', '11', '9'], 'time': [968, 1151, 1667, 1751, 1884, 2634, 3018, 3468, 3968, 4554, 4784, 5152]}, 'edge': {'target': [], 'time': []}}, 'mouseout': {'state': {'target': ['0', '5', '7', '6', '5', '12', '4', '1', '3', '8', '9', '11', '9'], 'time': [900, 984, 1584, 1734, 1768, 2334, 2951, 3051, 3717, 4368, 4635, 5104, 5217]}, 'edge': {'target': [], 'time': []}}}",9.76,10121.0,,
,mouselab-mdp,705493,0.0-3.0-1.0-17.0,,"[2248, 5, 43]",,,1731,[],"[0, 0, 0, 0, 0, 0, 0, 0, 0, 0, 0, 0, 0]","['', 2, 4, 24, 48, 2, -4, -24, -48, -2, -8, 48, -48]",-7.082365920985033e+18,training,17.0,51.0,"[None, None, None]","[2, 4, 48]","['0', '0', '1', '2', '4']","['up', 'up', 'left']","[3046, 3566, 4118]","{'click': {'state': {'target': ['3', '12', '4'], 'time': [1238, 1768, 2455]}, 'edge': {'target': [], 'time': []}}, 'mouseover': {'state': {'target': ['3', '1', '12', '10', '4', '5'], 'time': [1157, 1456, 1656, 2024, 2356, 2706]}, 'edge': {'target': [], 'time': []}}, 'mouseout': {'state': {'target': ['0', '3', '1', '12', '10', '4', '5', '8'], 'time': [926, 1423, 1473, 1990, 2056, 2623, 2723, 4724]}, 'edge': {'target': [], 'time': []}}}",8.80,10973.0,,
,mouselab-mdp,716750,0.0-3.0-1.0-18.0,,"[2951, 74, 43]",,,1731,[],"[0, 0, 0, 0, 0, 0, 0, 0, 0, 0, 0, 0, 0]","['', -2, 8, 24, 48, 2, -4, 48, -48, 2, 8, 24, -48]",4.460497769895528e+18,training,18.0,51.0,"[None, None, None]","[-2, 8, 48]","['0', '0', '1', '2', '4']","['up', 'up', 'left']","[4521, 5089, 5641]","{'click': {'state': {'target': ['3', '12', '4'], 'time': [2751, 3335, 4007]}, 'edge': {'target': [], 'time': []}}, 'mouseover': {'state': {'target': ['0', '1', '3', '1', '12', '4', '1'], 'time': [2334, 2512, 2629, 3013, 3246, 3829, 4229]}, 'edge': {'target': [], 'time': []}}, 'mouseout': {'state': {'target': ['0', '0', '1', '3', '1', '12', '4', '1'], 'time': [2164, 2429, 2562, 2962, 3029, 3679, 4179, 4263]}, 'edge': {'target': [], 'time': []}}}",10.57,11202.0,,
,mouselab-mdp,726101,0.0-3.0-1.0-19.0,,"[2233, 510, 130]",,,1731,[],"[0, 0, 0, 0, 0, 0, 0, 0, 0, 0, 0, 0, 0]","['', -2, 8, -24, 48, 2, -4, 48, 24, -2, 8, -24, -24]",7.530597343457169e+17,training,19.0,51.0,"[None, None, None]","[-2, 8, 48]","['0', '0', '1', '2', '4']","['up', 'up', 'left']","[3187, 4204, 4844]","{'click': {'state': {'target': ['3', '12', '4'], 'time': [1357, 1954, 2604]}, 'edge': {'target': [], 'time': []}}, 'mouseover': {'state': {'target': ['3', '1', '9', '12', '10', '11', '4', '1'], 'time': [1286, 1668, 1719, 1868, 2219, 2320, 2435, 2802]}, 'edge': {'target': [], 'time': []}}, 'mouseout': {'state': {'target': ['5', '3', '1', '9', '12', '10', '11', '4', '1'], 'time': [690, 1602, 1685, 1735, 2186, 2272, 2385, 2770, 2852]}, 'edge': {'target': [], 'time': []}}}",8.96,9259.0,,
,mouselab-mdp,736414,0.0-3.0-2.0-0.0,,"[3523, 76, 102]",,,1731,[],"[0, 0, 0, 0, 0, 0, 0, 0, 0, 0, 0, 0, 0]","['', 2, 4, 24, 24, -4, -8, 24, 48, -4, -4, -24, -24]",7.794057713406285e+17,test,20.0,31.0,"[None, None, None]","[-4, -8, 48]","['0', '0', '5', '6', '8']","['right', 'right', 'down']","[4272, 4855, 5463]","{'click': {'state': {'target': ['3', '12', '4', '7', '8'], 'time': [1113, 1846, 2457, 3191, 3626]}, 'edge': {'target': [], 'time': []}}, 'mouseover': {'state': {'target': ['3', '1', '9', '12', '12', '10', '4', '5', '6', '7', '6', '8'], 'time': [969, 1336, 1419, 1469, 1802, 2152, 2402, 2786, 2869, 3036, 3403, 3486]}, 'edge': {'target': [], 'time': []}}, 'mouseout': {'state': {'target': ['3', '1', '9', '12', '12', '10', '4', '5', '6', '7', '6', '8', '8'], 'time': [1286, 1354, 1436, 1536, 2119, 2202, 2652, 2836, 2919, 3370, 3452, 4019, 4169]}, 'edge': {'target': [], 'time': []}}}",9.75,10255.0,,
,mouselab-mdp,747655,0.0-3.0-2.0-1.0,,"[2741, 97, 115]",,,1731,[],"[0, 0, 0, 0, 0, 0, 0, 0, 0, 0, 0, 0, 0]","['', -2, 4, -24, 48, -2, 4, -24, 48, 4, -8, 24, 48]",3.364858280464458e+17,test,21.0,48.0,"[None, None, None]","[-2, 4, 48]","['0', '0', '1', '2', '4']","['up', 'up', 'left']","[3946, 4555, 5170]","{'click': {'state': {'target': ['3', '4'], 'time': [2289, 3126]}, 'edge': {'target': [], 'time': []}}, 'mouseover': {'state': {'target': ['1', '3', '2', '4', '4', '11'], 'time': [1438, 2153, 2571, 2621, 3020, 3520]}, 'edge': {'target': [], 'time': []}}, 'mouseout': {'state': {'target': ['8', '0', '1', '3', '2', '4', '4', '11', '9', '4'], 'time': [686, 786, 1487, 2558, 2604, 2738, 3386, 3821, 5323, 10692]}, 'edge': {'target': [], 'time': []}}}",10.21,11162.0,,
,mouselab-mdp,757077,0.0-3.0-2.0-2.0,,"[1092, 79, 89]",,,1731,[],"[0, 0, 0, 0, 0, 0, 0, 0, 0, 0, 0, 0, 0]","['', -4, 4, 48, 48, -4, -4, 24, 48, -4, -8, -48, -24]",1.0106246541947454e+17,test,22.0,47.0,"[None, None, None]","[-4, 4, 48]","['0', '0', '1', '2', '3']","['up', 'up', 'right']","[2128, 2727, 3321]","{'click': {'state': {'target': ['3'], 'time': [1442]}, 'edge': {'target': [], 'time': []}}, 'mouseover': {'state': {'target': ['3'], 'time': [1279]}, 'edge': {'target': [], 'time': []}}, 'mouseout': {'state': {'target': ['1', '0', '0', '3'], 'time': [563, 662, 1058, 4166]}, 'edge': {'target': [], 'time': []}}}",9.04,9343.0,,
,mouselab-mdp,766149,0.0-3.0-2.0-3.0,,"[1904, 37, 69]",,,1731,[],"[0, 0, 0, 0, 0, 0, 0, 0, 0, 0, 0, 0, 0]","['', -4, -4, -24, 48, 4, 8, 24, -24, -2, 8, 24, 48]",-2.851190945072683e+17,test,23.0,52.0,"[None, None, None]","[-2, 8, 48]","['0', '0', '9', '10', '12']","['left', 'left', 'down']","[2545, 3098, 3697]","{'click': {'state': {'target': ['3', '12'], 'time': [1094, 1830]}, 'edge': {'target': [], 'time': []}}, 'mouseover': {'state': {'target': ['0', '3', '1', '9', '12', '10', '10'], 'time': [776, 975, 1425, 1525, 1709, 2125, 2513]}, 'edge': {'target': [], 'time': []}}, 'mouseout': {'state': {'target': ['0', '0', '3', '1', '9', '12', '10', '10'], 'time': [649, 792, 1380, 1475, 1575, 2091, 2192, 2625]}, 'edge': {'target': [], 'time': []}}}",8.64,8977.0,,
,mouselab-mdp,776422,0.0-3.0-2.0-4.0,,"[1693, 444, 65]",,,1731,[],"[0, 0, 0, 0, 0, 0, 0, 0, 0, 0, 0, 0, 0]","['', -2, 8, 24, 48, -2, -8, 48, 48, 2, 4, 24, 48]",1.0137673368414092e+18,test,24.0,52.0,"[None, None, None]","[2, 4, 48]","['0', '0', '9', '10', '12']","['left', 'left', 'down']","[2572, 3533, 4139]","{'click': {'state': {'target': ['3', '12'], 'time': [1302, 1941]}, 'edge': {'target': [], 'time': []}}, 'mouseover': {'state': {'target': ['3', '1', '9', '12', '10', '11'], 'time': [1170, 1620, 1704, 1803, 2187, 2288]}, 'edge': {'target': [], 'time': []}}, 'mouseout': {'state': {'target': ['3', '1', '9', '12', '10', '11', '9'], 'time': [1537, 1654, 1738, 2154, 2237, 2487, 2937]}, 'edge': {'target': [], 'time': []}}}",9.88,10212.0,,
,mouselab-mdp,785553,0.0-3.0-2.0-5.0,,"[1242, 34, 32]",,,1731,[],"[0, 0, 0, 0, 0, 0, 0, 0, 0, 0, 0, 0, 0]","['', 2, 8, 48, 48, -4, -8, 24, 48, 4, 4, 48, 24]",4.610111718856282e+17,test,25.0,57.0,"[None, None, None]","[2, 8, 48]","['0', '0', '1', '2', '3']","['up', 'up', 'right']","[2006, 2542, 3088]","{'click': {'state': {'target': ['3'], 'time': [1270]}, 'edge': {'target': [], 'time': []}}, 'mouseover': {'state': {'target': ['3', '1', '9', '12'], 'time': [1186, 1503, 1587, 1770]}, 'edge': {'target': [], 'time': []}}, 'mouseout': {'state': {'target': ['0', '3', '1', '9'], 'time': [953, 1470, 1536, 1620]}, 'edge': {'target': [], 'time': []}}}",8.77,9041.0,,
,mouselab-mdp,796198,0.0-3.0-2.0-6.0,,"[912, 9, 19]",,,1731,[],"[0, 0, 0, 0, 0, 0, 0, 0, 0, 0, 0, 0, 0]","['', -2, -4, 48, 24, -2, -4, -48, -24, -4, -4, 24, 48]",-3.1773427201591757e+18,test,26.0,41.0,"[None, None, None]","[-2, -4, 48]","['0', '0', '1', '2', '3']","['up', 'up', 'right']","[2051, 2570, 3113]","{'click': {'state': {'target': ['3'], 'time': [1512]}, 'edge': {'target': [], 'time': []}}, 'mouseover': {'state': {'target': ['3', '1'], 'time': [1320, 1820]}, 'edge': {'target': [], 'time': []}}, 'mouseout': {'state': {'target': ['12', '0', '3', '1'], 'time': [436, 1176, 1773, 1904]}, 'edge': {'target': [], 'time': []}}}",10.14,10568.0,,
,mouselab-mdp,806254,0.0-3.0-2.0-7.0,,"[978, 71, 3]",,,1731,[],"[0, 0, 0, 0, 0, 0, 0, 0, 0, 0, 0, 0, 0]","['', 2, -8, 48, -48, -2, 8, -48, 24, 2, 8, -24, -48]",-5.298439851260358e+18,test,27.0,41.0,"[None, None, None]","[2, -8, 48]","['0', '0', '1', '2', '3']","['up', 'up', 'right']","[1691, 2265, 2794]","{'click': {'state': {'target': ['3'], 'time': [1129]}, 'edge': {'target': [], 'time': []}}, 'mouseover': {'state': {'target': ['3', '1'], 'time': [1039, 1490]}, 'edge': {'target': [], 'time': []}}, 'mouseout': {'state': {'target': ['0', '3', '1', '0'], 'time': [823, 1428, 1607, 3980]}, 'edge': {'target': [], 'time': []}}}",9.71,9993.0,,
,mouselab-mdp,815294,0.0-3.0-2.0-8.0,,"[4025, 7, 35]",,,1731,[],"[0, 0, 0, 0, 0, 0, 0, 0, 0, 0, 0, 0, 0]","['', -4, -8, -48, 24, 2, -8, -48, 48, 2, -8, -24, 24]",-3.537338363954668e+18,test,28.0,37.0,"[None, None, None]","[2, -8, 48]","['0', '0', '5', '6', '8']","['right', 'right', 'down']","[4702, 5223, 5797]","{'click': {'state': {'target': ['3', '12', '4', '7', '8'], 'time': [1113, 1776, 2491, 3358, 3909]}, 'edge': {'target': [], 'time': []}}, 'mouseover': {'state': {'target': ['1', '3', '1', '9', '12', '4', '1', '7', '6', '8', '0', '9', '9'], 'time': [854, 1070, 1454, 1504, 1604, 2355, 2905, 3271, 3621, 3771, 4205, 4255, 4537]}, 'edge': {'target': [], 'time': []}}, 'mouseout': {'state': {'target': ['0', '1', '3', '1', '9', '12', '4', '1', '7', '6', '8', '0', '9'], 'time': [754, 887, 1404, 1487, 1538, 2087, 2872, 2937, 3589, 3689, 4154, 4238, 4287]}, 'edge': {'target': [], 'time': []}}}",8.68,8965.0,,
,mouselab-mdp,824335,0.0-3.0-2.0-9.0,,"[1042, 19, 4]",,,1731,[],"[0, 0, 0, 0, 0, 0, 0, 0, 0, 0, 0, 0, 0]","['', 4, 4, 48, 24, 4, -4, 24, -48, -2, -8, -24, -48]",5.662483218820924e+17,test,29.0,55.0,"[None, None, None]","[4, 4, 48]","['0', '0', '1', '2', '3']","['up', 'up', 'right']","[1701, 2232, 2770]","{'click': {'state': {'target': ['3'], 'time': [1044]}, 'edge': {'target': [], 'time': []}}, 'mouseover': {'state': {'target': ['3', '1'], 'time': [908, 1341]}, 'edge': {'target': [], 'time': []}}, 'mouseout': {'state': {'target': ['9', '3', '1'], 'time': [257, 1274, 2008]}, 'edge': {'target': [], 'time': []}}}",8.66,8959.0,,
,mouselab-mdp,834414,0.0-3.0-2.0-10.0,,"[2847, 55, 50]",,,1731,[],"[0, 0, 0, 0, 0, 0, 0, 0, 0, 0, 0, 0, 0]","['', 4, -4, 24, -24, -2, -4, -24, -24, 2, -4, 48, 24]",1.598574912455298e+18,test,30.0,43.0,"[None, None, None]","[2, -4, 48]","['0', '0', '9', '10', '11']","['left', 'left', 'up']","[3567, 4111, 4674]","{'click': {'state': {'target': ['3', '4', '11'], 'time': [1215, 2189, 2819]}, 'edge': {'target': [], 'time': []}}, 'mouseover': {'state': {'target': ['1', '3', '2', '4', '4', '11', '10', '12'], 'time': [904, 1054, 1638, 1671, 2054, 2738, 3037, 3170]}, 'edge': {'target': [], 'time': []}}, 'mouseout': {'state': {'target': ['0', '1', '3', '2', '4', '4', '11', '10'], 'time': [823, 938, 1607, 1654, 1737, 2420, 3004, 3087]}, 'edge': {'target': [], 'time': []}}}",9.72,9983.0,,
,mouselab-mdp,844439,0.0-3.0-2.0-11.0,,"[1766, 56, 103]",,,1731,[],"[0, 0, 0, 0, 0, 0, 0, 0, 0, 0, 0, 0, 0]","['', 4, -4, -48, 48, -4, 8, 48, -24, 2, 4, 24, 48]",-8.591125776345143e+18,test,31.0,46.0,"[None, None, None]","[4, -4, 48]","['0', '0', '1', '2', '4']","['up', 'up', 'left']","[2443, 3001, 3617]","{'click': {'state': {'target': ['3', '4'], 'time': [1135, 1777]}, 'edge': {'target': [], 'time': []}}, 'mouseover': {'state': {'target': ['3', '2', '4', '1'], 'time': [1093, 1526, 1610, 2009]}, 'edge': {'target': [], 'time': []}}, 'mouseout': {'state': {'target': ['12', '9', '0', '3', '2', '4', '1'], 'time': [125, 292, 826, 1509, 1576, 1959, 2026]}, 'edge': {'target': [], 'time': []}}}",9.68,9945.0,,
,mouselab-mdp,853462,0.0-3.0-2.0-12.0,,"[1098, 25, 29]",,,1731,[],"[0, 0, 0, 0, 0, 0, 0, 0, 0, 0, 0, 0, 0]","['', 2, -8, 48, -48, 4, -4, 48, 24, 2, -8, -48, -48]",8.638557165232621e+17,test,32.0,41.0,"[None, None, None]","[2, -8, 48]","['0', '0', '1', '2', '3']","['up', 'up', 'right']","[1733, 2274, 2810]","{'click': {'state': {'target': ['3'], 'time': [1096]}, 'edge': {'target': [], 'time': []}}, 'mouseover': {'state': {'target': ['1', '3', '2'], 'time': [812, 978, 1511]}, 'edge': {'target': [], 'time': []}}, 'mouseout': {'state': {'target': ['1', '3', '2'], 'time': [845, 1445, 1728]}, 'edge': {'target': [], 'time': []}}}",8.64,8937.0,,
,mouselab-mdp,863470,0.0-3.0-2.0-13.0,,"[3795, 43, 71]",,,1731,[],"[0, 0, 0, 0, 0, 0, 0, 0, 0, 0, 0, 0, 0]","['', -4, -4, 24, -24, -4, 4, 24, 24, 4, 4, 48, -48]",-7.890144164692454e+18,test,33.0,50.0,"[None, None, None]","[4, 4, 48]","['0', '0', '9', '10', '11']","['left', 'left', 'up']","[4475, 5026, 5595]","{'click': {'state': {'target': ['3', '4', '7', '8', '12', '11'], 'time': [1090, 1731, 2354, 2883, 3569, 4026]}, 'edge': {'target': [], 'time': []}}, 'mouseover': {'state': {'target': ['1', '3', '2', '4', '1', '7', '6', '8', '12', '10', '11'], 'time': [863, 979, 1479, 1563, 1996, 2146, 2596, 2697, 3413, 3813, 3929]}, 'edge': {'target': [], 'time': []}}, 'mouseout': {'state': {'target': ['1', '3', '2', '4', '1', '7', '6', '8', '12', '10'], 'time': [879, 1463, 1513, 1930, 2063, 2546, 2647, 3214, 3763, 3863]}, 'edge': {'target': [], 'time': []}}}",9.68,9946.0,,
,mouselab-mdp,872929,0.0-3.0-2.0-14.0,,"[5350, 75, 69]",,,1731,[],"[0, 0, 0, 0, 0, 0, 0, 0, 0, 0, 0, 0, 0]","['', -4, 8, -48, 24, -2, 4, -48, -48, 4, 8, -24, 24]",6.406480628110735e+18,test,34.0,22.0,"[None, None, None]","[-4, 8, 24]","['0', '0', '1', '2', '4']","['up', 'up', 'left']","[6014, 6589, 7150]","{'click': {'state': {'target': ['3', '4', '11', '12', '7', '8'], 'time': [1504, 2099, 2773, 3320, 3920, 4344]}, 'edge': {'target': [], 'time': []}}, 'mouseover': {'state': {'target': ['1', '2', '3', '2', '4', '11', '11', '10', '12', '9', '7', '6', '8'], 'time': [810, 876, 1377, 1893, 1976, 2443, 2735, 3076, 3210, 3593, 3760, 4110, 4177]}, 'edge': {'target': [], 'time': []}}, 'mouseout': {'state': {'target': ['11', '1', '2', '3', '2', '4', '11', '11', '10', '12', '9', '7', '6', '8'], 'time': [304, 843, 894, 1859, 1944, 2360, 2460, 2984, 3160, 3560, 3610, 4093, 4144, 8460]}, 'edge': {'target': [], 'time': []}}}",8.66,9367.0,,
,mouselab-mdp,883377,0.0-3.0-2.0-15.0,,"[3408, 5, 22]",,,1731,[],"[0, 0, 0, 0, 0, 0, 0, 0, 0, 0, 0, 0, 0]","['', 4, -4, 24, 24, 4, 4, 48, -48, 4, -8, -24, 48]",8.695590532405199e+18,test,35.0,40.0,"[None, None, None]","[4, -8, 48]","['0', '0', '9', '10', '12']","['left', 'left', 'down']","[4958, 5469, 5998]","{'click': {'state': {'target': ['3', '4', '11', '12'], 'time': [2309, 2830, 3768, 4250]}, 'edge': {'target': [], 'time': []}}, 'mouseover': {'state': {'target': ['1', '3', '2', '4', '11', '10', '12'], 'time': [1971, 2205, 2688, 2738, 3638, 4004, 4138]}, 'edge': {'target': [], 'time': []}}, 'mouseout': {'state': {'target': ['0', '1', '3', '2', '4', '11', '10', '12', '8'], 'time': [1792, 2056, 2671, 2721, 3091, 3971, 4071, 4454, 9089]}, 'edge': {'target': [], 'time': []}}}",9.55,10377.0,,
,mouselab-mdp,912477,0.0-3.0-2.0-16.0,,"[4679, 65, 34]",,,1731,[],"[0, 0, 0, 0, 0, 0, 0, 0, 0, 0, 0, 0, 0]","['', -2, -8, -48, -24, 2, -8, -48, 48, -2, 4, -48, -48]",-9.742857968514916e+17,test,36.0,38.0,"[None, None, None]","[2, -8, 48]","['0', '0', '5', '6', '8']","['right', 'right', 'down']","[5346, 5934, 6480]","{'click': {'state': {'target': ['3', '4', '7', '8'], 'time': [1132, 1654, 2927, 4671]}, 'edge': {'target': [], 'time': []}}, 'mouseover': {'state': {'target': ['3', '3', '2', '4', '2', '7', '7', '6', '8', '8', '8'], 'time': [994, 1060, 1510, 1610, 1961, 2077, 2793, 3160, 3244, 3607, 4577]}, 'edge': {'target': [], 'time': []}}, 'mouseout': {'state': {'target': ['0', '3', '3', '2', '4', '2', '7', '7', '6', '8', '8', '8', '8', '6', '5'], 'time': [728, 1011, 1477, 1560, 1930, 1977, 2144, 3127, 3193, 3343, 3961, 4977, 5577, 28096, 28129]}, 'edge': {'target': [], 'time': []}}}",9.67,29016.0,,
,mouselab-mdp,923751,0.0-3.0-2.0-17.0,,"[640, 1707, 349]",,,1731,[],"[0, 0, 0, 0, 0, 0, 0, 0, 0, 0, 0, 0, 0]","['', 4, 4, 48, -24, 4, -4, -48, 48, 2, -8, 48, 24]",-8.580200434703876e+18,test,37.0,-48.0,"[None, None, None]","[4, -4, -48]","['0', '0', '5', '6', '7']","['right', 'right', 'up']","[1506, 3746, 4601]","{'click': {'state': {'target': [], 'time': []}, 'edge': {'target': [], 'time': []}}, 'mouseover': {'state': {'target': [], 'time': []}, 'edge': {'target': [], 'time': []}}, 'mouseout': {'state': {'target': ['0', '6', '8', '6', '8'], 'time': [733, 2356, 2717, 3083, 8618]}, 'edge': {'target': [], 'time': []}}}",10.87,11210.0,,
,mouselab-mdp,934919,0.0-3.0-2.0-18.0,,"[982, 388, 342]",,,1731,[],"[0, 0, 0, 0, 0, 0, 0, 0, 0, 0, 0, 0, 0]","['', -2, 4, -24, 48, -2, 8, 48, 48, -2, -8, -48, -24]",-8.320322614546437e+17,test,38.0,49.0,"[None, None, None]","[-2, 4, 48]","['0', '0', '1', '2', '4']","['up', 'up', 'left']","[1689, 2588, 3441]","{'click': {'state': {'target': ['4'], 'time': [1085]}, 'edge': {'target': [], 'time': []}}, 'mouseover': {'state': {'target': ['4'], 'time': [948]}, 'edge': {'target': [], 'time': []}}, 'mouseout': {'state': {'target': ['0', '4', '0'], 'time': [598, 1415, 4616]}, 'edge': {'target': [], 'time': []}}}",10.71,11074.0,,
,mouselab-mdp,944510,0.0-3.0-2.0-19.0,,"[1345, 32, 33]",,,1731,[],"[0, 0, 0, 0, 0, 0, 0, 0, 0, 0, 0, 0, 0]","['', -2, -4, 48, -24, 4, -8, 48, -48, 2, -8, 24, -48]",-8.867212192286324e+18,test,39.0,41.0,"[None, None, None]","[-2, -4, 48]","['0', '0', '1', '2', '3']","['up', 'up', 'right']","[2384, 2936, 3480]","{'click': {'state': {'target': ['3'], 'time': [1764]}, 'edge': {'target': [], 'time': []}}, 'mouseover': {'state': {'target': ['3'], 'time': [1644]}, 'edge': {'target': [], 'time': []}}, 'mouseout': {'state': {'target': ['0', '3'], 'time': [977, 2011]}, 'edge': {'target': [], 'time': []}}}",9.04,9512.0,,
,mouselab-mdp,150040,0.0-3.0-1.0-0.0,,"[8097, 6948, 9082]",,,2372,[],"[0, 0, 0, 0, 0, 0, 0, 0, 0, 0, 0, 0, 0]","['', -4, 8, -48, 24, -2, 4, -48, -48, 4, 8, -24, 24]",6.406480628110735e+18,training,0.0,-13.0,"[None, None, None]","[4, 8, -24]","['0', '0', '9', '10', '11']","['left', 'left', 'up']","[9860, 17308, 26886]","{'click': {'state': {'target': ['5'], 'time': [7237]}, 'edge': {'target': [], 'time': []}}, 'mouseover': {'state': {'target': ['0', '5', '0', '9'], 'time': [5032, 5144, 7764, 7860]}, 'edge': {'target': [], 'time': []}}, 'mouseout': {'state': {'target': ['2', '0', '0', '5', '0', '9', '10', '5', '8'], 'time': [708, 2564, 5053, 7548, 7831, 11373, 15365, 23406, 24756]}, 'edge': {'target': [], 'time': []}}}",27.39,29206.0,,
,mouselab-mdp,165826,0.0-3.0-1.0-1.0,,"[2881, 1316, 2080]",,,2372,[],"[0, 0, 0, 0, 0, 0, 0, 0, 0, 0, 0, 0, 0]","['', -2, 4, 24, -48, 4, 8, 48, -24, 2, -4, 24, 48]",2.9113856902925153e+18,training,1.0,44.0,"[None, None, None]","[2, -4, 48]","['0', '0', '9', '10', '12']","['left', 'left', 'down']","[7816, 9632, 12208]","{'click': {'state': {'target': ['1', '9'], 'time': [6457, 7161]}, 'edge': {'target': [], 'time': []}}, 'mouseover': {'state': {'target': ['1', '9', '5'], 'time': [5977, 6904, 7426]}, 'edge': {'target': [], 'time': []}}, 'mouseout': {'state': {'target': ['0', '1', '9', '5', '0', '10', '11', '10', '12'], 'time': [5784, 6725, 7295, 8425, 8473, 10673, 11287, 11391, 12440]}, 'edge': {'target': [], 'time': []}}}",13.94,15761.0,,
,mouselab-mdp,177667,0.0-3.0-1.0-2.0,,"[3588, 669, 1742]",,,2372,[],"[0, 0, 0, 0, 0, 0, 0, 0, 0, 0, 0, 0, 0]","['', 4, -4, -48, 48, -4, 8, 48, -24, 2, 4, 24, 48]",-8.591125776345143e+18,training,2.0,46.0,"[None, None, None]","[4, -4, 48]","['0', '0', '1', '2', '4']","['up', 'up', 'left']","[4608, 5776, 8017]","{'click': {'state': {'target': ['5', '1'], 'time': [2354, 3914]}, 'edge': {'target': [], 'time': []}}, 'mouseover': {'state': {'target': ['5', '0', '9', '1'], 'time': [1889, 2940, 3017, 3633]}, 'edge': {'target': [], 'time': []}}, 'mouseout': {'state': {'target': ['0', '5', '0', '9', '1', '4', '1'], 'time': [1704, 2561, 2977, 3521, 4044, 8294, 9345]}, 'edge': {'target': [], 'time': []}}}",11.02,11817.0,,
,mouselab-mdp,188676,0.0-3.0-1.0-3.0,,"[4688, 309, 200]",,,2372,[],"[0, 0, 0, 0, 0, 0, 0, 0, 0, 0, 0, 0, 0]","['', 2, 8, 48, -24, 2, 8, -24, 24, -4, -4, -48, 24]",-2.4102857850257306e+18,training,3.0,56.0,"[None, None, None]","[2, 8, 48]","['0', '0', '1', '2', '3']","['up', 'up', 'right']","[5739, 6563, 7259]","{'click': {'state': {'target': ['4', '3'], 'time': [3844, 4596]}, 'edge': {'target': [], 'time': []}}, 'mouseover': {'state': {'target': ['1', '4', '2', '3'], 'time': [1891, 2107, 4330, 4387]}, 'edge': {'target': [], 'time': []}}, 'mouseout': {'state': {'target': ['0', '1', '4', '2', '3'], 'time': [1779, 1976, 4291, 4357, 5018]}, 'edge': {'target': [], 'time': []}}}",10.05,10987.0,,
,mouselab-mdp,198581,0.0-3.0-1.0-4.0,,"[2772, 53, 368]",,,2372,[],"[0, 0, 0, 0, 0, 0, 0, 0, 0, 0, 0, 0, 0]","['', -2, 4, 24, 24, -4, 8, 48, 24, -4, 8, -48, -24]",-3.127342074357005e+18,training,4.0,25.0,"[None, None, None]","[-2, 4, 24]","['0', '0', '1', '2', '3']","['up', 'up', 'right']","[3844, 4396, 5260]","{'click': {'state': {'target': ['3'], 'time': [2045]}, 'edge': {'target': [], 'time': []}}, 'mouseover': {'state': {'target': ['3', '2', '4'], 'time': [1676, 2460, 2596]}, 'edge': {'target': [], 'time': []}}, 'mouseout': {'state': {'target': ['3', '2', '4', '1'], 'time': [2444, 2548, 6869, 8621]}, 'edge': {'target': [], 'time': []}}}",9.07,9884.0,,
,mouselab-mdp,208935,0.0-3.0-1.0-5.0,,"[2906, 144, 81]",,,2372,[],"[0, 0, 0, 0, 0, 0, 0, 0, 0, 0, 0, 0, 0]","['', 2, 4, -24, 48, -2, -8, 48, 24, 4, 8, -48, -48]",-2.5975390318514273e+18,training,5.0,52.0,"[None, None, None]","[2, 4, 48]","['0', '0', '1', '2', '4']","['up', 'up', 'left']","[3588, 4228, 4804]","{'click': {'state': {'target': ['3', '4'], 'time': [1870, 2781]}, 'edge': {'target': [], 'time': []}}, 'mouseover': {'state': {'target': ['1', '3', '2', '4'], 'time': [1090, 1437, 2382, 2611]}, 'edge': {'target': [], 'time': []}}, 'mouseout': {'state': {'target': ['0', '1', '3', '2', '4'], 'time': [661, 1132, 2355, 2429, 3028]}, 'edge': {'target': [], 'time': []}}}",9.68,10332.0,,
,mouselab-mdp,220472,0.0-3.0-1.0-6.0,,"[5741, 101, 8]",,,2372,[],"[0, 0, 0, 0, 0, 0, 0, 0, 0, 0, 0, 0, 0]","['', -2, 4, -48, -24, -4, -8, -48, -24, -2, 4, -24, 24]",4.506983446382795e+18,training,6.0,20.0,"[None, None, None]","[-2, 4, 24]","['0', '0', '9', '10', '12']","['left', 'left', 'down']","[6468, 7068, 7572]","{'click': {'state': {'target': ['4', '3', '8', '7', '11', '12'], 'time': [1381, 2022, 3310, 3878, 5054, 5710]}, 'edge': {'target': [], 'time': []}}, 'mouseover': {'state': {'target': ['1', '4', '2', '3', '6', '8', '6', '7', '9', '10', '11', '10', '12'], 'time': [987, 1197, 1675, 1888, 2959, 3077, 3613, 3685, 4453, 4605, 4841, 5424, 5485]}, 'edge': {'target': [], 'time': []}}, 'mouseout': {'state': {'target': ['0', '1', '4', '2', '3', '6', '8', '6', '7', '9', '10', '11', '10', '12'], 'time': [316, 1015, 1636, 1703, 2277, 3037, 3541, 3653, 4357, 4557, 4781, 5285, 5469, 9466]}, 'edge': {'target': [], 'time': []}}}",9.73,11517.0,,
,mouselab-mdp,230657,0.0-3.0-1.0-7.0,,"[1299, 98, 493]",,,2372,[],"[0, 0, 0, 0, 0, 0, 0, 0, 0, 0, 0, 0, 0]","['', -2, -8, -24, 48, 4, 8, 48, -48, -4, -8, -24, -48]",-1.966432234622665e+18,training,7.0,37.0,"[None, None, None]","[-2, -8, 48]","['0', '0', '1', '2', '4']","['up', 'up', 'left']","[1898, 2498, 3490]","{'click': {'state': {'target': ['4'], 'time': [1364]}, 'edge': {'target': [], 'time': []}}, 'mouseover': {'state': {'target': ['1', '2', '4', '2'], 'time': [899, 1091, 1163, 1580]}, 'edge': {'target': [], 'time': []}}, 'mouseout': {'state': {'target': ['0', '1', '2', '4', '2', '3'], 'time': [346, 939, 1129, 1552, 1635, 8244]}, 'edge': {'target': [], 'time': []}}}",9.60,10163.0,,
,mouselab-mdp,242555,0.0-3.0-1.0-8.0,,"[1915, 132, 53]",,,2372,[],"[0, 0, 0, 0, 0, 0, 0, 0, 0, 0, 0, 0, 0]","['', 4, 4, 48, -24, 4, -4, -48, 48, 2, -8, 48, 24]",-8.580200434703876e+18,training,8.0,54.0,"[None, None, None]","[4, 4, 48]","['0', '0', '1', '2', '3']","['up', 'up', 'right']","[2723, 3355, 3915]","{'click': {'state': {'target': ['4', '3'], 'time': [1701, 2205]}, 'edge': {'target': [], 'time': []}}, 'mouseover': {'state': {'target': ['1', '4', '2', '3'], 'time': [1062, 1258, 1881, 1980]}, 'edge': {'target': [], 'time': []}}, 'mouseout': {'state': {'target': ['1', '0', '1', '4', '2', '3'], 'time': [402, 1004, 1092, 1828, 1924, 9677]}, 'edge': {'target': [], 'time': []}}}",9.81,11876.0,,
,mouselab-mdp,252963,0.0-3.0-1.0-9.0,,"[2683, 84, 78]",,,2372,[],"[0, 0, 0, 0, 0, 0, 0, 0, 0, 0, 0, 0, 0]","['', 2, 4, 24, 48, 2, -4, -24, -48, -2, -8, 48, -48]",-7.082365920985033e+18,training,9.0,52.0,"[None, None, None]","[2, 4, 48]","['0', '0', '1', '2', '4']","['up', 'up', 'left']","[3449, 4034, 4610]","{'click': {'state': {'target': ['3', '4'], 'time': [1715, 2987]}, 'edge': {'target': [], 'time': []}}, 'mouseover': {'state': {'target': ['1', '3', '2', '4'], 'time': [1156, 1418, 2003, 2177]}, 'edge': {'target': [], 'time': []}}, 'mouseout': {'state': {'target': ['0', '1', '3', '2', '4', '1'], 'time': [1059, 1218, 1899, 2138, 3184, 5476]}, 'edge': {'target': [], 'time': []}}}",9.77,10386.0,,
,mouselab-mdp,262437,0.0-3.0-1.0-10.0,,"[4464, 188, 110]",,,2372,[],"[0, 0, 0, 0, 0, 0, 0, 0, 0, 0, 0, 0, 0]","['', -4, -4, 24, -24, -4, 4, 24, 24, 4, 4, 48, -48]",-7.890144164692454e+18,training,10.0,51.0,"[None, None, None]","[4, 4, 48]","['0', '0', '9', '10', '11']","['left', 'left', 'up']","[5131, 5819, 6435]","{'click': {'state': {'target': ['4', '3', '8', '7', '11'], 'time': [1436, 1940, 2780, 3260, 4124]}, 'edge': {'target': [], 'time': []}}, 'mouseover': {'state': {'target': ['1', '2', '4', '2', '3', '6', '8', '6', '7', '11', '10', '12'], 'time': [936, 1011, 1067, 1609, 1790, 2498, 2571, 3019, 3115, 3955, 4315, 4360]}, 'edge': {'target': [], 'time': []}}, 'mouseout': {'state': {'target': ['0', '1', '2', '4', '2', '3', '6', '8', '6', '7', '11', '10'], 'time': [567, 979, 1019, 1563, 1700, 2107, 2540, 2970, 3059, 3602, 4292, 4345]}, 'edge': {'target': [], 'time': []}}}",8.67,9452.0,,
,mouselab-mdp,272614,0.0-3.0-1.0-11.0,,"[1451, 44, 22]",,,2372,[],"[0, 0, 0, 0, 0, 0, 0, 0, 0, 0, 0, 0, 0]","['', -4, -8, 48, -48, -2, -8, 48, 24, -2, 8, 24, -24]",6.221411054408101e+18,training,11.0,35.0,"[None, None, None]","[-4, -8, 48]","['0', '0', '1', '2', '3']","['up', 'up', 'right']","[2227, 2771, 3291]","{'click': {'state': {'target': ['3'], 'time': [1612]}, 'edge': {'target': [], 'time': []}}, 'mouseover': {'state': {'target': ['1', '3', '2'], 'time': [1081, 1363, 1827]}, 'edge': {'target': [], 'time': []}}, 'mouseout': {'state': {'target': ['12', '0', '1', '3', '2', '2', '1', '0'], 'time': [323, 553, 1101, 1787, 1921, 4700, 4828, 4976]}, 'edge': {'target': [], 'time': []}}}",9.78,10156.0,,
,mouselab-mdp,282639,0.0-3.0-1.0-12.0,,"[4843, 107, 63]",,,2372,[],"[0, 0, 0, 0, 0, 0, 0, 0, 0, 0, 0, 0, 0]","['', -2, -8, -48, -24, 2, -8, -48, 48, -2, 4, -48, -48]",-9.742857968514916e+17,training,12.0,36.0,"[None, None, None]","[2, -8, 48]","['0', '0', '5', '6', '8']","['right', 'right', 'down']","[5722, 6330, 6890]","{'click': {'state': {'target': ['3', '4', '12', '11', '7', '8'], 'time': [1475, 2620, 3508, 3972, 4708, 5236]}, 'edge': {'target': [], 'time': []}}, 'mouseover': {'state': {'target': ['1', '3', '2', '4', '4', '9', '10', '12', '11', '7', '6', '8'], 'time': [1131, 1251, 2211, 2243, 2459, 3062, 3155, 3323, 3798, 4563, 4867, 4915]}, 'edge': {'target': [], 'time': []}}, 'mouseout': {'state': {'target': ['0', '1', '3', '2', '4', '4', '9', '10', '12', '11', '7', '6', '8'], 'time': [1034, 1179, 1750, 2234, 2266, 2794, 3099, 3283, 3651, 4146, 4843, 4899, 7692]}, 'edge': {'target': [], 'time': []}}}",8.88,10003.0,,
,mouselab-mdp,291928,0.0-3.0-1.0-13.0,,"[2236, 109, 66]",,,2372,[],"[0, 0, 0, 0, 0, 0, 0, 0, 0, 0, 0, 0, 0]","['', -2, 8, -24, 48, 2, 4, -48, 24, 4, -4, 48, 48]",3.761354316659214e+18,training,13.0,47.0,"[None, None, None]","[4, -4, 48]","['0', '0', '9', '10', '11']","['left', 'left', 'up']","[2971, 3579, 4147]","{'click': {'state': {'target': ['11'], 'time': [2085]}, 'edge': {'target': [], 'time': []}}, 'mouseover': {'state': {'target': ['11', '10', '12'], 'time': [1612, 2292, 2356]}, 'edge': {'target': [], 'time': []}}, 'mouseout': {'state': {'target': ['8', '0', '11', '10', '12'], 'time': [356, 1204, 2260, 2324, 2483]}, 'edge': {'target': [], 'time': []}}}",8.74,9268.0,,
,mouselab-mdp,301273,0.0-3.0-1.0-14.0,,"[4227, 99, 39]",,,2372,[],"[0, 0, 0, 0, 0, 0, 0, 0, 0, 0, 0, 0, 0]","['', 2, 4, -24, 48, 2, -4, 24, 24, 2, -4, -48, -24]",7.341350411386814e+18,training,14.0,48.0,"[None, None, None]","[2, 4, 48]","['0', '0', '1', '2', '4']","['up', 'up', 'left']","[4867, 5466, 6010]","{'click': {'state': {'target': ['11', '12', '8', '7', '3', '4'], 'time': [1276, 1932, 2572, 3116, 3756, 4508]}, 'edge': {'target': [], 'time': []}}, 'mouseover': {'state': {'target': ['9', '11', '10', '12', '8', '6', '7', '3', '2', '4', '4'], 'time': [931, 1088, 1571, 1738, 2411, 2747, 2963, 3561, 3929, 4035, 4419]}, 'edge': {'target': [], 'time': []}}, 'mouseout': {'state': {'target': ['0', '9', '11', '10', '12', '8', '6', '7', '7', '3', '2', '4', '4'], 'time': [899, 954, 1523, 1707, 2091, 2723, 2803, 3315, 3456, 3891, 3964, 4083, 4693]}, 'edge': {'target': [], 'time': []}}}",8.64,9323.0,,
,mouselab-mdp,311690,0.0-3.0-1.0-15.0,,"[1961, 40, 163]",,,2372,[],"[0, 0, 0, 0, 0, 0, 0, 0, 0, 0, 0, 0, 0]","['', -2, 8, 24, 48, 2, 4, -24, 24, 4, 8, 48, 24]",2.790125680448452e+18,training,15.0,52.0,"[None, None, None]","[-2, 8, 48]","['0', '0', '1', '2', '4']","['up', 'up', 'left']","[2818, 3354, 4026]","{'click': {'state': {'target': ['3', '4'], 'time': [1500, 2380]}, 'edge': {'target': [], 'time': []}}, 'mouseover': {'state': {'target': ['1', '3', '2', '4'], 'time': [1125, 1251, 1859, 2147]}, 'edge': {'target': [], 'time': []}}, 'mouseout': {'state': {'target': ['1', '0', '1', '3', '2', '4', '1', '0'], 'time': [562, 1067, 1132, 1755, 2003, 4571, 4834, 4959]}, 'edge': {'target': [], 'time': []}}}",9.86,10395.0,,
,mouselab-mdp,321667,0.0-3.0-1.0-16.0,,"[3819, 31, 512]",,,2372,[],"[0, 0, 0, 0, 0, 0, 0, 0, 0, 0, 0, 0, 0]","['', 2, 8, -48, -48, 4, 4, -48, 48, 4, 8, 24, -48]",2.59484151301768e+18,training,16.0,51.0,"[None, None, None]","[4, 4, 48]","['0', '0', '5', '6', '8']","['right', 'right', 'down']","[4538, 5066, 6074]","{'click': {'state': {'target': ['3', '4', '11', '12', '8'], 'time': [1251, 1811, 2451, 3211, 3979]}, 'edge': {'target': [], 'time': []}}, 'mouseover': {'state': {'target': ['1', '3', '2', '4', '11', '10', '12', '8', '6'], 'time': [971, 1098, 1527, 1650, 2270, 2634, 3018, 3826, 4146]}, 'edge': {'target': [], 'time': []}}, 'mouseout': {'state': {'target': ['0', '1', '3', '2', '4', '11', '10', '12', '8', '6', '6'], 'time': [882, 986, 1474, 1602, 2082, 2594, 2674, 3434, 4114, 4256, 7131]}, 'edge': {'target': [], 'time': []}}}",8.72,9954.0,,
,mouselab-mdp,330972,0.0-3.0-1.0-17.0,,"[1090, 52, 320]",,,2372,[],"[0, 0, 0, 0, 0, 0, 0, 0, 0, 0, 0, 0, 0]","['', -2, -4, 24, 24, 4, 8, -24, 48, -4, -8, -48, 24]",-1.7534982563480835e+18,training,17.0,59.0,"[None, None, None]","[4, 8, 48]","['0', '0', '5', '6', '8']","['right', 'right', 'down']","[1956, 2508, 3325]","{'click': {'state': {'target': ['8'], 'time': [1446]}, 'edge': {'target': [], 'time': []}}, 'mouseover': {'state': {'target': ['5', '8'], 'time': [1095, 1245]}, 'edge': {'target': [], 'time': []}}, 'mouseout': {'state': {'target': ['5', '0', '5', '8'], 'time': [539, 1074, 1125, 1661]}, 'edge': {'target': [], 'time': []}}}",8.87,9285.0,,
,mouselab-mdp,340046,0.0-3.0-1.0-18.0,,"[1157, 96, 83]",,,2372,[],"[0, 0, 0, 0, 0, 0, 0, 0, 0, 0, 0, 0, 0]","['', 2, 4, -24, 24, 4, -8, -48, 48, 2, 4, -48, -24]",-6.74953611421507e+18,training,18.0,43.0,"[None, None, None]","[4, -8, 48]","['0', '0', '5', '6', '8']","['right', 'right', 'down']","[1884, 2477, 3061]","{'click': {'state': {'target': ['8'], 'time': [1302]}, 'edge': {'target': [], 'time': []}}, 'mouseover': {'state': {'target': ['5', '8', '6'], 'time': [925, 1045, 1595]}, 'edge': {'target': [], 'time': []}}, 'mouseout': {'state': {'target': ['0', '5', '8'], 'time': [909, 933, 1509]}, 'edge': {'target': [], 'time': []}}}",8.73,9053.0,,
,mouselab-mdp,349775,0.0-3.0-1.0-19.0,,"[1868, 119, 77]",,,2372,[],"[0, 0, 0, 0, 0, 0, 0, 0, 0, 0, 0, 0, 0]","['', 2, -4, -48, -24, -2, -4, 48, -24, 4, 4, 48, -24]",7.520829653297501e+18,training,19.0,40.0,"[None, None, None]","[-2, -4, 48]","['0', '0', '5', '6', '7']","['right', 'right', 'up']","[2676, 3300, 3876]","{'click': {'state': {'target': ['8', '7'], 'time': [1421, 2149]}, 'edge': {'target': [], 'time': []}}, 'mouseover': {'state': {'target': ['8', '6', '7'], 'time': [1188, 1812, 2035]}, 'edge': {'target': [], 'time': []}}, 'mouseout': {'state': {'target': ['6', '5', '0', '8', '6', '7', '5'], 'time': [380, 476, 1116, 1772, 1882, 2404, 6341]}, 'edge': {'target': [], 'time': []}}}",8.81,9709.0,,
,mouselab-mdp,359104,0.0-3.0-2.0-0.0,,"[1876, 110, 59]",,,2372,[],"[0, 0, 0, 0, 0, 0, 0, 0, 0, 0, 0, 0, 0]","['', 2, 8, -48, 48, 4, 4, -24, 48, -4, -4, 48, -24]",-9.094639660769571e+18,test,20.0,54.0,"[None, None, None]","[4, 4, 48]","['0', '0', '5', '6', '8']","['right', 'right', 'down']","[2578, 3186, 3746]","{'click': {'state': {'target': ['7', '8'], 'time': [1324, 1948]}, 'edge': {'target': [], 'time': []}}, 'mouseover': {'state': {'target': ['5', '7', '6', '8', '6'], 'time': [923, 1090, 1644, 1715, 2179]}, 'edge': {'target': [], 'time': []}}, 'mouseout': {'state': {'target': ['0', '5', '7', '6', '8', '6', '5'], 'time': [891, 963, 1610, 1675, 2131, 2219, 6475]}, 'edge': {'target': [], 'time': []}}}",8.70,9307.0,,
,mouselab-mdp,368522,0.0-3.0-2.0-1.0,,"[4420, 1219, 72]",,,2372,[],"[0, 0, 0, 0, 0, 0, 0, 0, 0, 0, 0, 0, 0]","['', -2, 4, -24, 24, -4, 8, -24, -48, -4, -8, 24, 24]",3.0235896747776123e+18,test,21.0,6.0,"[None, None, None]","[-4, -8, 24]","['0', '0', '9', '10', '11']","['left', 'left', 'up']","[5157, 6877, 7445]","{'click': {'state': {'target': ['4', '3', '8', '7', '12', '11'], 'time': [1334, 1934, 2654, 3254, 4278, 4942]}, 'edge': {'target': [], 'time': []}}, 'mouseover': {'state': {'target': ['4', '2', '3', '6', '8', '6', '6', '7', '9', '12', '10', '11'], 'time': [1085, 1613, 1653, 2333, 2437, 2925, 3045, 3143, 3768, 4093, 4645, 4782]}, 'edge': {'target': [], 'time': []}}, 'mouseout': {'state': {'target': ['0', '4', '2', '3', '6', '8', '6', '6', '7', '9', '12', '10', '11'], 'time': [885, 1597, 1637, 2221, 2393, 2909, 2949, 3069, 3677, 3901, 4622, 4686, 8254]}, 'edge': {'target': [], 'time': []}}}",8.74,9389.0,,
,mouselab-mdp,382587,0.0-3.0-2.0-2.0,,"[4788, 102, 11]",,,2372,[],"[0, 0, 0, 0, 0, 0, 0, 0, 0, 0, 0, 0, 0]","['', 4, -4, 24, -24, -2, -4, -24, -24, 2, -4, 48, 24]",1.598574912455298e+18,test,22.0,41.0,"[None, None, None]","[2, -4, 48]","['0', '0', '9', '10', '11']","['left', 'left', 'up']","[9290, 9890, 10402]","{'click': {'state': {'target': ['7', '8', '4', '3', '11'], 'time': [5235, 5707, 6460, 6876, 8516]}, 'edge': {'target': [], 'time': []}}, 'mouseover': {'state': {'target': ['7', '6', '8', '5', '1', '4', '2', '3', '11', '10', '12'], 'time': [4858, 5439, 5515, 6018, 6091, 6300, 6635, 6715, 7499, 8675, 8738]}, 'edge': {'target': [], 'time': []}}, 'mouseout': {'state': {'target': ['5', '0', '7', '6', '8', '5', '1', '4', '2', '3', '11', '10', '12'], 'time': [906, 4706, 5394, 5491, 5987, 6026, 6203, 6611, 6683, 7195, 8651, 8707, 11859]}, 'edge': {'target': [], 'time': []}}}",13.50,14043.0,,
,mouselab-mdp,391844,0.0-3.0-2.0-3.0,,"[2709, 61, 419]",,,2372,[],"[0, 0, 0, 0, 0, 0, 0, 0, 0, 0, 0, 0, 0]","['', -4, -8, -48, -48, -2, -8, -48, 48, -2, 4, -24, -24]",5.130275037508485e+18,test,23.0,35.0,"[None, None, None]","[-2, -8, 48]","['0', '0', '5', '6', '8']","['right', 'right', 'down']","[3517, 4077, 4997]","{'click': {'state': {'target': ['11', '12', '8'], 'time': [1423, 1950, 2895]}, 'edge': {'target': [], 'time': []}}, 'mouseover': {'state': {'target': ['9', '11', '10', '12', '8', '8', '6'], 'time': [1056, 1246, 1710, 1758, 2462, 2737, 3057]}, 'edge': {'target': [], 'time': []}}, 'mouseout': {'state': {'target': ['0', '9', '11', '10', '12', '8', '8', '6', '6', '5'], 'time': [1030, 1063, 1686, 1742, 2102, 2502, 3029, 3110, 5855, 6062]}, 'edge': {'target': [], 'time': []}}}",8.81,9230.0,,
,mouselab-mdp,401926,0.0-3.0-2.0-4.0,,"[1219, 55, 323]",,,2372,[],"[0, 0, 0, 0, 0, 0, 0, 0, 0, 0, 0, 0, 0]","['', -2, 4, 48, -48, 4, -8, 48, 24, -2, -8, 24, 48]",-4.5078917317226716e+18,test,24.0,49.0,"[None, None, None]","[-2, 4, 48]","['0', '0', '1', '2', '3']","['up', 'up', 'right']","[1794, 2346, 3170]","{'click': {'state': {'target': ['3'], 'time': [1276]}, 'edge': {'target': [], 'time': []}}, 'mouseover': {'state': {'target': ['3', '2'], 'time': [1051, 1563]}, 'edge': {'target': [], 'time': []}}, 'mouseout': {'state': {'target': ['0', '3', '2'], 'time': [827, 1515, 3931]}, 'edge': {'target': [], 'time': []}}}",9.58,10059.0,,
,mouselab-mdp,412214,0.0-3.0-2.0-5.0,,"[2666, 63, 29]",,,2372,[],"[0, 0, 0, 0, 0, 0, 0, 0, 0, 0, 0, 0, 0]","['', -2, 4, -24, -24, -4, -8, 48, -24, 4, -8, -24, 24]",-5.123434937761383e+16,test,25.0,33.0,"[None, None, None]","[-4, -8, 48]","['0', '0', '5', '6', '7']","['right', 'right', 'up']","[3342, 3902, 4431]","{'click': {'state': {'target': ['3', '8', '7'], 'time': [1216, 2120, 2624]}, 'edge': {'target': [], 'time': []}}, 'mouseover': {'state': {'target': ['3', '5', '8', '6', '7', '1'], 'time': [1053, 1705, 1969, 2391, 2447, 2921]}, 'edge': {'target': [], 'time': []}}, 'mouseout': {'state': {'target': ['0', '3', '5', '8', '6', '7', '1', '0'], 'time': [615, 1567, 1727, 2351, 2423, 2823, 5167, 5231]}, 'edge': {'target': [], 'time': []}}}",9.68,10263.0,,
,mouselab-mdp,422479,0.0-3.0-2.0-6.0,,"[1947, 109, 65]",,,2372,[],"[0, 0, 0, 0, 0, 0, 0, 0, 0, 0, 0, 0, 0]","['', -4, -8, -48, 24, 2, -8, -48, 48, 2, -8, -24, 24]",-3.537338363954668e+18,test,26.0,40.0,"[None, None, None]","[2, -8, 48]","['0', '0', '5', '6', '8']","['right', 'right', 'down']","[2762, 3370, 3930]","{'click': {'state': {'target': ['7', '8'], 'time': [1420, 1948]}, 'edge': {'target': [], 'time': []}}, 'mouseover': {'state': {'target': ['5', '7', '6', '8'], 'time': [1045, 1186, 1674, 1803]}, 'edge': {'target': [], 'time': []}}, 'mouseout': {'state': {'target': ['0', '5', '7', '6', '8'], 'time': [1017, 1090, 1635, 1774, 2225]}, 'edge': {'target': [], 'time': []}}}",9.83,10243.0,,
,mouselab-mdp,432816,0.0-3.0-2.0-7.0,,"[1505, 130, 522]",,,2372,[],"[0, 0, 0, 0, 0, 0, 0, 0, 0, 0, 0, 0, 0]","['', -2, 8, 48, 24, -2, 4, -48, 48, 4, -8, -48, -48]",-7.383638292178567e+18,test,27.0,49.0,"[None, None, None]","[-2, 4, 48]","['0', '0', '5', '6', '8']","['right', 'right', 'down']","[2156, 2788, 3812]","{'click': {'state': {'target': ['8'], 'time': [1566]}, 'edge': {'target': [], 'time': []}}, 'mouseover': {'state': {'target': ['5', '8', '6'], 'time': [949, 1221, 1773]}, 'edge': {'target': [], 'time': []}}, 'mouseout': {'state': {'target': ['0', '5', '8', '6', '6', '5'], 'time': [909, 1005, 1717, 1925, 4678, 4733]}, 'edge': {'target': [], 'time': []}}}",8.65,10317.0,,
,mouselab-mdp,441769,0.0-3.0-2.0-8.0,,"[3466, 185, 43]",,,2372,[],"[0, 0, 0, 0, 0, 0, 0, 0, 0, 0, 0, 0, 0]","['', 4, 4, 48, 24, 4, 8, -24, -48, 2, -4, -48, 24]",-4.315514392980278e+18,test,28.0,52.0,"[None, None, None]","[4, 4, 48]","['0', '0', '1', '2', '3']","['up', 'up', 'right']","[3915, 4603, 5147]","{'click': {'state': {'target': ['8', '7', '4', '3'], 'time': [1188, 1908, 2716, 3172]}, 'edge': {'target': [], 'time': []}}, 'mouseover': {'state': {'target': ['5', '8', '6', '7', '2', '4', '2', '3', '1'], 'time': [835, 963, 1475, 1683, 2395, 2475, 2943, 2987, 3499]}, 'edge': {'target': [], 'time': []}}, 'mouseout': {'state': {'target': ['0', '5', '8', '6', '7', '2', '4', '2', '3', '1', '0'], 'time': [795, 875, 1353, 1651, 2315, 2427, 2883, 2971, 3419, 6540, 6609]}, 'edge': {'target': [], 'time': []}}}",8.45,8931.0,,
,mouselab-mdp,452226,0.0-3.0-2.0-9.0,,"[1852, 66, 23]",,,2372,[],"[0, 0, 0, 0, 0, 0, 0, 0, 0, 0, 0, 0, 0]","['', -4, 4, -24, 48, -4, -8, -24, 48, -4, 8, -24, -48]",-5.433328656123216e+18,test,29.0,46.0,"[None, None, None]","[-4, 4, 48]","['0', '0', '1', '2', '4']","['up', 'up', 'left']","[2585, 3153, 3672]","{'click': {'state': {'target': ['3', '4'], 'time': [1298, 1882]}, 'edge': {'target': [], 'time': []}}, 'mouseover': {'state': {'target': ['3', '2', '4'], 'time': [1065, 1641, 1705]}, 'edge': {'target': [], 'time': []}}, 'mouseout': {'state': {'target': ['0', '3', '2', '4', '0'], 'time': [889, 1606, 1689, 2105, 6218]}, 'edge': {'target': [], 'time': []}}}",9.73,10433.0,,
,mouselab-mdp,462292,0.0-3.0-2.0-10.0,,"[4418, 145, 58]",,,2372,[],"[0, 0, 0, 0, 0, 0, 0, 0, 0, 0, 0, 0, 0]","['', 4, -4, -48, -48, -4, 8, -48, -24, 4, -4, 48, -24]",-6.340653903295126e+18,test,30.0,43.0,"[None, None, None]","[4, -4, 48]","['0', '0', '9', '10', '11']","['left', 'left', 'up']","[5163, 5803, 6363]","{'click': {'state': {'target': ['4', '3', '8', '7', '11'], 'time': [1500, 2012, 2628, 3060, 4244]}, 'edge': {'target': [], 'time': []}}, 'mouseover': {'state': {'target': ['1', '4', '2', '3', '7', '6', '8', '6', '7', '1', '11', '10'], 'time': [963, 1115, 1787, 1868, 2307, 2379, 2451, 2795, 2908, 3772, 4123, 4484]}, 'edge': {'target': [], 'time': []}}, 'mouseout': {'state': {'target': ['0', '1', '4', '2', '3', '7', '6', '8', '6', '7', '1', '11', '10'], 'time': [915, 1003, 1763, 1843, 2259, 2356, 2419, 2763, 2880, 3299, 3811, 4411, 7380]}, 'edge': {'target': [], 'time': []}}}",8.74,10044.0,,
,mouselab-mdp,472485,0.0-3.0-2.0-11.0,,"[1636, 148, 63]",,,2372,[],"[0, 0, 0, 0, 0, 0, 0, 0, 0, 0, 0, 0, 0]","['', -2, 4, 24, -24, 4, -8, 24, -24, 4, -4, 48, -24]",6.242434190208863e+17,test,31.0,47.0,"[None, None, None]","[4, -4, 48]","['0', '0', '9', '10', '11']","['left', 'left', 'up']","[2217, 2865, 3425]","{'click': {'state': {'target': ['11'], 'time': [1274]}, 'edge': {'target': [], 'time': []}}, 'mouseover': {'state': {'target': ['11'], 'time': [1073]}, 'edge': {'target': [], 'time': []}}, 'mouseout': {'state': {'target': ['0', '11'], 'time': [777, 1431]}, 'edge': {'target': [], 'time': []}}}",9.58,10170.0,,
,mouselab-mdp,482790,0.0-3.0-2.0-12.0,,"[2283, 157, 97]",,,2372,[],"[0, 0, 0, 0, 0, 0, 0, 0, 0, 0, 0, 0, 0]","['', 4, 8, -24, 24, 4, -4, -24, 24, -4, 4, -24, 48]",2.948336531417193e+18,test,32.0,46.0,"[None, None, None]","[-4, 4, 48]","['0', '0', '9', '10', '12']","['left', 'left', 'down']","[2867, 3523, 4115]","{'click': {'state': {'target': ['11', '12'], 'time': [1117, 1620]}, 'edge': {'target': [], 'time': []}}, 'mouseover': {'state': {'target': ['11', '12'], 'time': [972, 1462]}, 'edge': {'target': [], 'time': []}}, 'mouseout': {'state': {'target': ['0', '11', '12'], 'time': [763, 1268, 1835]}, 'edge': {'target': [], 'time': []}}}",9.59,10284.0,,
,mouselab-mdp,494480,0.0-3.0-2.0-13.0,,"[7060, 117, 378]",,,2372,[],"[0, 0, 0, 0, 0, 0, 0, 0, 0, 0, 0, 0, 0]","['', -4, 8, 24, 24, -2, -8, -48, -24, -4, -8, 24, 24]",5.782292848891635e+18,test,33.0,22.0,"[None, None, None]","[-4, 8, 24]","['0', '0', '1', '2', '3']","['up', 'up', 'right']","[7595, 8211, 9091]","{'click': {'state': {'target': ['11', '12', '8', '7', '3', '4'], 'time': [1356, 1900, 2732, 3236, 4100, 4972]}, 'edge': {'target': [], 'time': []}}, 'mouseover': {'state': {'target': ['0', '9', '11', '10', '12', '12', '8', '6', '7', '3', '2', '4', '4'], 'time': [779, 858, 1203, 1555, 1628, 1731, 2611, 2907, 3043, 3997, 4299, 4339, 4781]}, 'edge': {'target': [], 'time': []}}, 'mouseout': {'state': {'target': ['0', '0', '9', '11', '10', '12', '12', '8', '6', '7', '3', '2', '4', '4', '1', '0'], 'time': [763, 803, 996, 1499, 1607, 1667, 2139, 2885, 2963, 3515, 4275, 4323, 4517, 5139, 10380, 10484]}, 'edge': {'target': [], 'time': []}}}",9.59,11667.0,,
,mouselab-mdp,503816,0.0-3.0-2.0-14.0,,"[1786, 175, 93]",,,2372,[],"[0, 0, 0, 0, 0, 0, 0, 0, 0, 0, 0, 0, 0]","['', -4, 8, 48, -48, -4, -4, -48, 48, -2, 8, 24, 48]",-4.689310195682358e+18,test,34.0,50.0,"[None, None, None]","[-4, 8, 48]","['0', '0', '1', '2', '3']","['up', 'up', 'right']","[2713, 3386, 3978]","{'click': {'state': {'target': ['4', '3'], 'time': [1579, 2099]}, 'edge': {'target': [], 'time': []}}, 'mouseover': {'state': {'target': ['4', '2', '3'], 'time': [1410, 1770, 1978]}, 'edge': {'target': [], 'time': []}}, 'mouseout': {'state': {'target': ['0', '4', '2', '3', '5'], 'time': [1166, 1730, 1938, 2330, 6307]}, 'edge': {'target': [], 'time': []}}}",8.93,9314.0,,
,mouselab-mdp,513065,0.0-3.0-2.0-15.0,,"[3387, 177, 111]",,,2372,[],"[0, 0, 0, 0, 0, 0, 0, 0, 0, 0, 0, 0, 0]","['', -2, 8, -24, -24, -2, 4, -48, 24, -4, -8, 48, -48]",5.44134319392284e+18,test,35.0,32.0,"[None, None, None]","[-4, -8, 48]","['0', '0', '9', '10', '11']","['left', 'left', 'up']","[4011, 4683, 5291]","{'click': {'state': {'target': ['3', '4', '12', '11'], 'time': [1172, 1836, 2564, 3100]}, 'edge': {'target': [], 'time': []}}, 'mouseover': {'state': {'target': ['1', '3', '2', '4', '12', '10', '11'], 'time': [827, 955, 1435, 1707, 2435, 2747, 2819]}, 'edge': {'target': [], 'time': []}}, 'mouseout': {'state': {'target': ['0', '1', '3', '2', '4', '12', '10', '11', '5'], 'time': [519, 894, 1379, 1483, 2091, 2715, 2779, 3243, 8444]}, 'edge': {'target': [], 'time': []}}}",8.62,9227.0,,
,mouselab-mdp,522083,0.0-3.0-2.0-16.0,,"[1466, 103, 93]",,,2372,[],"[0, 0, 0, 0, 0, 0, 0, 0, 0, 0, 0, 0, 0]","['', 4, -8, 48, 24, -2, -4, 24, -24, 4, -4, 48, 48]",-8.930756420240891e+18,test,36.0,47.0,"[None, None, None]","[4, -4, 48]","['0', '0', '9', '10', '11']","['left', 'left', 'up']","[2010, 2610, 3210]","{'click': {'state': {'target': ['11'], 'time': [1243]}, 'edge': {'target': [], 'time': []}}, 'mouseover': {'state': {'target': ['11', '10'], 'time': [1082, 1442]}, 'edge': {'target': [], 'time': []}}, 'mouseout': {'state': {'target': ['0', '11', '10'], 'time': [547, 1410, 1458]}, 'edge': {'target': [], 'time': []}}}",8.54,8995.0,,
,mouselab-mdp,532907,0.0-3.0-2.0-17.0,,"[6732, 140, 156]",,,2372,[],"[0, 0, 0, 0, 0, 0, 0, 0, 0, 0, 0, 0, 0]","['', -2, -8, -48, 24, -4, -4, -24, -48, 2, -8, 24, 24]",8.324563381047186e+18,test,37.0,10.0,"[None, None, None]","[2, -8, 24]","['0', '0', '9', '10', '11']","['left', 'left', 'up']","[7368, 8008, 8664]","{'click': {'state': {'target': ['11', '12', '8', '7', '3', '4', '5', '9'], 'time': [1257, 1817, 2585, 3249, 3778, 4273, 6202, 6826]}, 'edge': {'target': [], 'time': []}}, 'mouseover': {'state': {'target': ['11', '10', '12', '8', '6', '7', '3', '2', '4', '1', '5', '9'], 'time': [1064, 1536, 1604, 2456, 2768, 3136, 3609, 3953, 4153, 4696, 5977, 6689]}, 'edge': {'target': [], 'time': []}}, 'mouseout': {'state': {'target': ['0', '11', '10', '12', '8', '6', '7', '3', '2', '4', '1', '5', '9'], 'time': [504, 1504, 1583, 2104, 2728, 2832, 3537, 3913, 4007, 4521, 4921, 6369, 7000]}, 'edge': {'target': [], 'time': []}}}",9.16,10800.0,,
,mouselab-mdp,547941,0.0-3.0-2.0-18.0,,"[5917, 179, 83]",,,2372,[],"[0, 0, 0, 0, 0, 0, 0, 0, 0, 0, 0, 0, 0]","['', -2, -8, 24, 24, -2, -8, 24, -24, 4, -4, 24, -48]",7.419235085028046e+18,test,38.0,8.0,"[None, None, None]","[-2, -8, 24]","['0', '0', '1', '2', '4']","['up', 'up', 'left']","[10898, 11578, 12162]","{'click': {'state': {'target': ['11', '12', '8', '7', '3', '4'], 'time': [5667, 6291, 6947, 7355, 7923, 8419]}, 'edge': {'target': [], 'time': []}}, 'mouseover': {'state': {'target': ['9', '11', '10', '12', '8', '6', '7', '3', '2', '4', '1', '1'], 'time': [5330, 5474, 5866, 6186, 6810, 7146, 7242, 7682, 8114, 8186, 8898, 10698]}, 'edge': {'target': [], 'time': []}}, 'mouseout': {'state': {'target': ['0', '9', '11', '10', '12', '8', '6', '7', '3', '2', '4', '1', '1', '1'], 'time': [5298, 5354, 5826, 5906, 6418, 7122, 7194, 7602, 8082, 8146, 8722, 10155, 10714, 13307]}, 'edge': {'target': [], 'time': []}}}",13.98,15010.0,,
,mouselab-mdp,557967,0.0-3.0-2.0-19.0,,"[3811, 75, 115]",,,2372,[],"[0, 0, 0, 0, 0, 0, 0, 0, 0, 0, 0, 0, 0]","['', -2, 8, 24, -48, 4, 4, -48, -24, 2, 8, -48, 48]",5.188170829716248e+18,test,39.0,52.0,"[None, None, None]","[2, 8, 48]","['0', '0', '9', '10', '12']","['left', 'left', 'down']","[5327, 5903, 6519]","{'click': {'state': {'target': ['4', '3', '8', '7', '11', '12'], 'time': [2112, 2600, 3272, 3664, 4368, 4840]}, 'edge': {'target': [], 'time': []}}, 'mouseover': {'state': {'target': ['1', '4', '2', '3', '6', '8', '6', '7', '11', '10', '12'], 'time': [1775, 1991, 2343, 2455, 2984, 3087, 3383, 3495, 4231, 4543, 4623]}, 'edge': {'target': [], 'time': []}}, 'mouseout': {'state': {'target': ['0', '1', '4', '2', '3', '6', '8', '6', '7', '11', '10', '12'], 'time': [1711, 1823, 2287, 2391, 2831, 3007, 3362, 3455, 3823, 4519, 4591, 7528]}, 'edge': {'target': [], 'time': []}}}",9.52,9999.0,,
,mouselab-mdp,141387,0.0-3.0-1.0-0.0,,"[16997, 73, 128]",,,2373,[],"[0, 0, 0, 0, 0, 0, 0, 0, 0, 0, 0, 0, 0]","['', -4, 4, -48, -24, 4, 4, 24, -48, -2, 4, 48, -48]",-3.2418898182311296e+18,training,0.0,38.0,"[None, None, None]","[-2, 4, 48]","['0', '0', '9', '10', '11']","['left', 'left', 'up']","[19133, 19721, 20365]","{'click': {'state': {'target': ['5', '6', '7', '8', '9', '10', '11', '12', '1', '4', '2', '3'], 'time': [3499, 4434, 5033, 6316, 9092, 9553, 9973, 10538, 11100, 11562, 12058, 12385]}, 'edge': {'target': [], 'time': []}}, 'mouseover': {'state': {'target': ['0', '5', '6', '7', '8', '0', '0', '9', '10', '11', '12', '0', '1', '4', '2', '2', '3'], 'time': [2300, 3342, 4219, 4816, 5449, 8218, 8732, 8835, 9383, 9865, 10415, 10780, 10906, 11447, 11715, 11931, 12214]}, 'edge': {'target': [], 'time': []}}, 'mouseout': {'state': {'target': ['0', '0', '0', '5', '6', '7', '6', '8', '0', '0', '9', '10', '11', '10', '12', '0', '1', '4', '2', '2', '3'], 'time': [1534, 1784, 2685, 4200, 4785, 5316, 5400, 6500, 8267, 8750, 9332, 9750, 10188, 10281, 10676, 10804, 11250, 11681, 11731, 12181, 12583]}, 'edge': {'target': [], 'time': []}}}",20.89,22468.0,,
,mouselab-mdp,153899,0.0-3.0-1.0-1.0,,"[4092, 284, 474]",,,2373,[],"[0, 0, 0, 0, 0, 0, 0, 0, 0, 0, 0, 0, 0]","['', -2, 4, 24, -48, 4, 8, 48, -24, 2, -4, 24, 48]",2.9113856902925153e+18,training,1.0,21.0,"[None, None, None]","[2, -4, 24]","['0', '0', '9', '10', '11']","['left', 'left', 'up']","[6601, 7403, 8465]","{'click': {'state': {'target': ['9'], 'time': [4807]}, 'edge': {'target': [], 'time': []}}, 'mouseover': {'state': {'target': ['9'], 'time': [4365]}, 'edge': {'target': [], 'time': []}}, 'mouseout': {'state': {'target': ['11', '0', '9'], 'time': [1732, 3015, 4949]}, 'edge': {'target': [], 'time': []}}}",11.51,12369.0,,
,mouselab-mdp,169755,0.0-3.0-1.0-2.0,,"[10665, 78, 46]",,,2373,[],"[0, 0, 0, 0, 0, 0, 0, 0, 0, 0, 0, 0, 0]","['', -4, 8, -24, 24, 2, -8, -48, -48, -4, -4, -48, -48]",1.5446418834392468e+18,training,2.0,21.0,"[None, None, None]","[-4, 8, 24]","['0', '0', '1', '2', '4']","['up', 'up', 'left']","[12798, 13388, 13957]","{'click': {'state': {'target': ['5', '7', '8', '3', '4', '11', '12'], 'time': [3114, 7116, 7886, 8979, 10011, 10916, 11449]}, 'edge': {'target': [], 'time': []}}, 'mouseover': {'state': {'target': ['5', '0', '7', '3', '7', '6', '8', '2', '3', '4', '9', '11', '10', '12', '9'], 'time': [2861, 3811, 6342, 6675, 6998, 7325, 7708, 8393, 8843, 9879, 10410, 10779, 11076, 11209, 11793]}, 'edge': {'target': [], 'time': []}}, 'mouseout': {'state': {'target': ['5', '5', '8', '0', '0', '5', '0', '7', '3', '7', '6', '8', '5', '2', '3', '5', '4', '9', '11', '10', '12', '9', '4'], 'time': [1243, 1329, 1496, 1728, 2228, 3327, 3827, 6363, 6743, 7294, 7476, 8040, 8359, 8442, 9124, 9358, 10167, 10496, 11057, 11124, 11575, 11841, 12057]}, 'edge': {'target': [], 'time': []}}}",14.49,15725.0,,
,mouselab-mdp,182003,0.0-3.0-1.0-3.0,,"[1956, 23, 96]",,,2373,[],"[0, 0, 0, 0, 0, 0, 0, 0, 0, 0, 0, 0, 0]","['', 2, 4, 24, 24, -4, -8, 24, 48, -4, -4, -24, -24]",7.794057713406285e+17,training,3.0,11.0,"[None, None, None]","[-4, -8, 24]","['0', '0', '5', '6', '7']","['right', 'right', 'up']","[3049, 3585, 4208]","{'click': {'state': {'target': ['7'], 'time': [1638]}, 'edge': {'target': [], 'time': []}}, 'mouseover': {'state': {'target': ['5', '7', '6', '8'], 'time': [1126, 1398, 1797, 2113]}, 'edge': {'target': [], 'time': []}}, 'mouseout': {'state': {'target': ['7', '5', '7', '6', '8', '7', '3', '1'], 'time': [508, 1261, 1775, 1941, 2195, 5523, 5843, 5909]}, 'edge': {'target': [], 'time': []}}}",10.10,11793.0,,
,mouselab-mdp,192275,0.0-3.0-1.0-4.0,,"[4785, 90, 99]",,,2373,[],"[0, 0, 0, 0, 0, 0, 0, 0, 0, 0, 0, 0, 0]","['', 4, -8, -48, -24, -2, 8, 24, 48, -2, -8, -48, -24]",6.562770673904911e+18,training,4.0,50.0,"[None, None, None]","[-2, 8, 48]","['0', '0', '5', '6', '8']","['right', 'right', 'down']","[5663, 6271, 6887]","{'click': {'state': {'target': ['11', '12', '7', '8'], 'time': [1946, 2564, 3320, 3924]}, 'edge': {'target': [], 'time': []}}, 'mouseover': {'state': {'target': ['0', '9', '10', '11', '12', '6', '7', '6', '8'], 'time': [1044, 1581, 1647, 1751, 2360, 2876, 3176, 3493, 3710]}, 'edge': {'target': [], 'time': []}}, 'mouseout': {'state': {'target': ['0', '0', '9', '10', '11', '12', '6', '7', '6', '8'], 'time': [628, 1494, 1615, 1730, 2110, 2676, 2897, 3460, 3593, 4126]}, 'edge': {'target': [], 'time': []}}}",8.88,10104.0,,
,mouselab-mdp,202826,0.0-3.0-1.0-5.0,,"[1932, 64, 66]",,,2373,[],"[0, 0, 0, 0, 0, 0, 0, 0, 0, 0, 0, 0, 0]","['', 4, 4, 48, -24, 4, -4, -48, 48, 2, -8, 48, 24]",-8.580200434703876e+18,training,5.0,41.0,"[None, None, None]","[2, -8, 48]","['0', '0', '9', '10', '11']","['left', 'left', 'up']","[2741, 3317, 3901]","{'click': {'state': {'target': ['11'], 'time': [1517]}, 'edge': {'target': [], 'time': []}}, 'mouseover': {'state': {'target': ['9', '11', '10'], 'time': [1146, 1265, 1814]}, 'edge': {'target': [], 'time': []}}, 'mouseout': {'state': {'target': ['0', '9', '11', '10', '7'], 'time': [1130, 1196, 1683, 1881, 5929]}, 'edge': {'target': [], 'time': []}}}",9.82,10445.0,,
,mouselab-mdp,214748,0.0-3.0-1.0-6.0,,"[4832, 70, 25]",,,2373,[],"[0, 0, 0, 0, 0, 0, 0, 0, 0, 0, 0, 0, 0]","['', 2, -8, -24, 48, 4, 4, -48, 24, 2, -4, -24, 24]",1.466645676459689e+18,training,6.0,37.0,"[None, None, None]","[2, -8, 48]","['0', '0', '1', '2', '4']","['up', 'up', 'left']","[6983, 7565, 8109]","{'click': {'state': {'target': ['12', '8', '7', '3', '4'], 'time': [2970, 3634, 4210, 4907, 5546]}, 'edge': {'target': [], 'time': []}}, 'mouseover': {'state': {'target': ['9', '10', '10', '12', '8', '6', '7', '5', '1', '2', '3', '4'], 'time': [2307, 2442, 2557, 2624, 3340, 3873, 3973, 4389, 4555, 4639, 4789, 5378]}, 'edge': {'target': [], 'time': []}}, 'mouseout': {'state': {'target': ['6', '7', '12', '9', '0', '9', '10', '10', '12', '8', '6', '7', '5', '1', '2', '3', '4', '5'], 'time': [1042, 1057, 1590, 1909, 2257, 2393, 2508, 2607, 3174, 3771, 3923, 4356, 4505, 4573, 4759, 5092, 5690, 9954]}, 'edge': {'target': [], 'time': []}}}",11.15,11830.0,,
,mouselab-mdp,224923,0.0-3.0-1.0-7.0,,"[4367, 35, 18]",,,2373,[],"[0, 0, 0, 0, 0, 0, 0, 0, 0, 0, 0, 0, 0]","['', 4, 8, -24, 24, 4, -4, -24, 24, -4, 4, -24, 48]",2.948336531417193e+18,training,7.0,44.0,"[None, None, None]","[-4, 4, 48]","['0', '0', '9', '10', '12']","['left', 'left', 'down']","[5748, 6307, 6851]","{'click': {'state': {'target': ['3', '7', '8', '12'], 'time': [2326, 3056, 3592, 4315]}, 'edge': {'target': [], 'time': []}}, 'mouseover': {'state': {'target': ['4', '2', '3', '3', '7', '7', '8', '12', '6'], 'time': [1768, 1958, 2199, 2320, 2719, 2937, 3465, 4135, 4902]}, 'edge': {'target': [], 'time': []}}, 'mouseout': {'state': {'target': ['0', '0', '4', '2', '3', '3', '7', '7', '8', '12'], 'time': [799, 1440, 1953, 1986, 2233, 2665, 2750, 3202, 3782, 4465]}, 'edge': {'target': [], 'time': []}}}",9.38,10035.0,,
,mouselab-mdp,236986,0.0-3.0-1.0-8.0,,"[4004, 18, 50]",,,2373,[],"[0, 0, 0, 0, 0, 0, 0, 0, 0, 0, 0, 0, 0]","['', 2, 8, 48, 48, -4, -8, 24, 48, 4, 4, 48, 24]",4.610111718856282e+17,training,8.0,32.0,"[None, None, None]","[-4, -8, 48]","['0', '0', '5', '6', '8']","['right', 'right', 'down']","[5899, 6435, 7012]","{'click': {'state': {'target': ['9', '10', '12', '8'], 'time': [2388, 2906, 3592, 4418]}, 'edge': {'target': [], 'time': []}}, 'mouseover': {'state': {'target': ['0', '9', '10', '12', '8', '6'], 'time': [1931, 2194, 2710, 3211, 4294, 4944]}, 'edge': {'target': [], 'time': []}}, 'mouseout': {'state': {'target': ['6', '9', '0', '0', '9', '10', '12', '8', '6', '1', '3'], 'time': [962, 1528, 1904, 1977, 2593, 3127, 3777, 4560, 4961, 11760, 11840]}, 'edge': {'target': [], 'time': []}}}",10.90,11963.0,,
,mouselab-mdp,248866,0.0-3.0-1.0-9.0,,"[2383, 60, 60]",,,2373,[],"[0, 0, 0, 0, 0, 0, 0, 0, 0, 0, 0, 0, 0]","['', -2, 4, -24, 48, -2, 4, -24, 48, 4, -8, 24, 48]",3.364858280464458e+17,training,9.0,48.0,"[None, None, None]","[-2, 4, 48]","['0', '0', '5', '6', '8']","['right', 'right', 'down']","[4239, 4815, 5423]","{'click': {'state': {'target': ['7', '8'], 'time': [2405, 2966]}, 'edge': {'target': [], 'time': []}}, 'mouseover': {'state': {'target': ['0', '5', '7', '6', '8'], 'time': [1903, 2085, 2190, 2617, 2783]}, 'edge': {'target': [], 'time': []}}, 'mouseout': {'state': {'target': ['3', '9', '0', '0', '5', '7', '6', '8', '3'], 'time': [1183, 1289, 1659, 2066, 2113, 2565, 2700, 3151, 6732]}, 'edge': {'target': [], 'time': []}}}",10.86,11703.0,,
,mouselab-mdp,259290,0.0-3.0-1.0-10.0,,"[5228, 60, 60]",,,2373,[],"[0, 0, 0, 0, 0, 0, 0, 0, 0, 0, 0, 0, 0]","['', 4, 8, -48, -48, -4, 8, -48, -24, 4, 4, 24, -24]",5.673770806327289e+18,training,10.0,26.0,"[None, None, None]","[4, 4, 24]","['0', '0', '9', '10', '11']","['left', 'left', 'up']","[6274, 6850, 7434]","{'click': {'state': {'target': ['7', '3', '4', '11', '12', '8'], 'time': [1643, 2336, 2991, 3639, 4312, 4985]}, 'edge': {'target': [], 'time': []}}, 'mouseover': {'state': {'target': ['5', '7', '6', '3', '3', '2', '4', '11', '12', '8'], 'time': [1138, 1389, 1791, 2006, 2172, 2654, 2906, 3538, 4153, 4830]}, 'edge': {'target': [], 'time': []}}, 'mouseout': {'state': {'target': ['1', '5', '7', '6', '3', '3', '2', '4', '11', '12', '8'], 'time': [461, 1327, 1773, 1957, 2038, 2553, 2704, 3154, 3809, 4588, 5198]}, 'edge': {'target': [], 'time': []}}}",9.05,10186.0,,
,mouselab-mdp,270692,0.0-3.0-1.0-11.0,,"[3702, 90, 59]",,,2373,[],"[0, 0, 0, 0, 0, 0, 0, 0, 0, 0, 0, 0, 0]","['', -4, -8, -48, 24, 2, -8, -48, 48, 2, -8, -24, 24]",-3.537338363954668e+18,training,11.0,40.0,"[None, None, None]","[2, -8, 48]","['0', '0', '5', '6', '8']","['right', 'right', 'down']","[5366, 5984, 6566]","{'click': {'state': {'target': ['7', '8'], 'time': [3091, 3751]}, 'edge': {'target': [], 'time': []}}, 'mouseover': {'state': {'target': ['0', '0', '5', '7', '6', '8'], 'time': [2097, 2329, 2748, 2963, 3290, 3437]}, 'edge': {'target': [], 'time': []}}, 'mouseout': {'state': {'target': ['0', '0', '0', '5', '7', '6', '8', '3', '5', '1', '0', '0'], 'time': [1797, 2146, 2731, 2765, 3277, 3346, 3882, 8210, 9000, 9212, 9428, 10010]}, 'edge': {'target': [], 'time': []}}}",10.66,11199.0,,
,mouselab-mdp,283770,0.0-3.0-1.0-12.0,,"[4418, 71, 25]",,,2373,[],"[0, 0, 0, 0, 0, 0, 0, 0, 0, 0, 0, 0, 0]","['', -2, -8, 48, 24, 4, 4, 48, 24, 2, -8, -24, -48]",-6.480731593057875e+18,training,12.0,33.0,"[None, None, None]","[-2, -8, 48]","['0', '0', '1', '2', '3']","['up', 'up', 'right']","[5230, 5812, 6355]","{'click': {'state': {'target': ['8', '12', '11', '4', '3'], 'time': [1336, 2145, 2873, 3491, 4063]}, 'edge': {'target': [], 'time': []}}, 'mouseover': {'state': {'target': ['5', '8', '9', '10', '12', '10', '11', '11', '9', '4', '1', '3'], 'time': [898, 1138, 1745, 1872, 1955, 2473, 2504, 2770, 3083, 3303, 3654, 3888]}, 'edge': {'target': [], 'time': []}}, 'mouseout': {'state': {'target': ['0', '5', '8', '9', '10', '12', '12', '10', '11', '11', '9', '4', '1', '3', '0'], 'time': [821, 945, 1537, 1759, 1921, 2289, 2471, 2488, 2521, 3063, 3225, 3619, 3674, 4222, 9768]}, 'edge': {'target': [], 'time': []}}}",9.81,12923.0,,
,mouselab-mdp,295051,0.0-3.0-1.0-13.0,,"[5822, 170, 44]",,,2373,[],"[0, 0, 0, 0, 0, 0, 0, 0, 0, 0, 0, 0, 0]","['', 2, 8, 48, -24, 2, 8, -24, 24, -4, -4, -48, 24]",-2.4102857850257306e+18,training,13.0,52.0,"[None, None, None]","[2, 8, 48]","['0', '0', '1', '2', '3']","['up', 'up', 'right']","[6592, 7272, 7831]","{'click': {'state': {'target': ['7', '8', '12', '11', '4', '3'], 'time': [1261, 1809, 2654, 3384, 4061, 4519]}, 'edge': {'target': [], 'time': []}}, 'mouseover': {'state': {'target': ['5', '7', '6', '8', '12', '10', '11', '4', '3'], 'time': [803, 1125, 1432, 1581, 2464, 3018, 3280, 3814, 4348]}, 'edge': {'target': [], 'time': []}}, 'mouseout': {'state': {'target': ['0', '5', '7', '6', '8', '12', '10', '11', '4', '3', '9'], 'time': [800, 848, 1414, 1551, 2082, 3015, 3047, 3534, 4165, 4663, 9544]}, 'edge': {'target': [], 'time': []}}}",9.77,11184.0,,
,mouselab-mdp,305074,0.0-3.0-1.0-14.0,,"[2069, 27, 5]",,,2373,[],"[0, 0, 0, 0, 0, 0, 0, 0, 0, 0, 0, 0, 0]","['', -2, -4, 48, -24, 4, -8, 48, -48, 2, -8, 24, -48]",-8.867212192286324e+18,training,14.0,43.0,"[None, None, None]","[4, -8, 48]","['0', '0', '5', '6', '7']","['right', 'right', 'up']","[3113, 3655, 4217]","{'click': {'state': {'target': ['7'], 'time': [1900]}, 'edge': {'target': [], 'time': []}}, 'mouseover': {'state': {'target': ['5', '3', '7', '8'], 'time': [1206, 1507, 1641, 2405]}, 'edge': {'target': [], 'time': []}}, 'mouseout': {'state': {'target': ['0', '5', '3', '7', '8', '3', '0'], 'time': [1090, 1224, 1589, 2024, 2489, 5355, 6270]}, 'edge': {'target': [], 'time': []}}}",9.04,9870.0,,
,mouselab-mdp,315565,0.0-3.0-1.0-15.0,,"[2006, 11, 192]",,,2373,[],"[0, 0, 0, 0, 0, 0, 0, 0, 0, 0, 0, 0, 0]","['', 4, 4, -48, 24, -2, 4, 48, -24, 4, 4, -48, 48]",3.9111036278787256e+18,training,15.0,49.0,"[None, None, None]","[-2, 4, 48]","['0', '0', '5', '6', '7']","['right', 'right', 'up']","[2669, 3204, 3917]","{'click': {'state': {'target': ['7'], 'time': [1374]}, 'edge': {'target': [], 'time': []}}, 'mouseover': {'state': {'target': ['5', '6', '7'], 'time': [839, 939, 1306]}, 'edge': {'target': [], 'time': []}}, 'mouseout': {'state': {'target': ['0', '5', '6', '7', '1', '3', '0'], 'time': [454, 921, 971, 1604, 4817, 5087, 5519]}, 'edge': {'target': [], 'time': []}}}",9.66,10295.0,,
,mouselab-mdp,324963,0.0-3.0-1.0-16.0,,"[3133, 67, 14]",,,2373,[],"[0, 0, 0, 0, 0, 0, 0, 0, 0, 0, 0, 0, 0]","['', -4, -4, -24, 48, 4, -4, 24, -48, 2, -4, 48, 24]",6.16152731315937e+18,training,16.0,43.0,"[None, None, None]","[2, -4, 48]","['0', '0', '9', '10', '11']","['left', 'left', 'up']","[3984, 4568, 5103]","{'click': {'state': {'target': ['7', '8', '11'], 'time': [1252, 1814, 2709]}, 'edge': {'target': [], 'time': []}}, 'mouseover': {'state': {'target': ['7', '6', '8', '12', '11', '10'], 'time': [1082, 1464, 1648, 2164, 2463, 2868]}, 'edge': {'target': [], 'time': []}}, 'mouseout': {'state': {'target': ['0', '7', '6', '8', '12', '11', '10', '2', '1', '0'], 'time': [472, 1415, 1548, 1966, 2197, 2847, 2904, 7129, 7153, 7199]}, 'edge': {'target': [], 'time': []}}}",8.85,9240.0,,
,mouselab-mdp,335417,0.0-3.0-1.0-17.0,,"[3075, 400, 58]",,,2373,[],"[0, 0, 0, 0, 0, 0, 0, 0, 0, 0, 0, 0, 0]","['', -2, -4, 48, 24, -2, -4, -48, -24, -4, -4, 24, 48]",-3.1773427201591757e+18,training,17.0,39.0,"[None, None, None]","[-2, -4, 48]","['0', '0', '1', '2', '3']","['up', 'up', 'right']","[3853, 4780, 5355]","{'click': {'state': {'target': ['11', '4', '3'], 'time': [1355, 2139, 2826]}, 'edge': {'target': [], 'time': []}}, 'mouseover': {'state': {'target': ['9', '10', '11', '4', '2', '3'], 'time': [807, 889, 1192, 2007, 2290, 2456]}, 'edge': {'target': [], 'time': []}}, 'mouseout': {'state': {'target': ['0', '9', '10', '11', '4', '2', '3'], 'time': [802, 827, 913, 1490, 2273, 2425, 3007]}, 'edge': {'target': [], 'time': []}}}",8.78,10307.0,,
,mouselab-mdp,344937,0.0-3.0-1.0-18.0,,"[3026, 45, 53]",,,2373,[],"[0, 0, 0, 0, 0, 0, 0, 0, 0, 0, 0, 0, 0]","['', -4, -8, 48, -48, -2, -8, 48, 24, -2, 8, 24, -24]",6.221411054408101e+18,training,18.0,34.0,"[None, None, None]","[-4, -8, 48]","['0', '0', '1', '2', '3']","['up', 'up', 'right']","[3673, 4241, 4833]","{'click': {'state': {'target': ['4', '3'], 'time': [1542, 2477]}, 'edge': {'target': [], 'time': []}}, 'mouseover': {'state': {'target': ['1', '2', '4', '2', '3', '3'], 'time': [976, 1060, 1348, 1788, 1926, 2425]}, 'edge': {'target': [], 'time': []}}, 'mouseout': {'state': {'target': ['0', '1', '2', '4', '2', '3', '3', '11'], 'time': [944, 1009, 1347, 1784, 1895, 1976, 2609, 6890]}, 'edge': {'target': [], 'time': []}}}",8.65,9200.0,,
,mouselab-mdp,355248,0.0-3.0-1.0-19.0,,"[4069, 36, 85]",,,2373,[],"[0, 0, 0, 0, 0, 0, 0, 0, 0, 0, 0, 0, 0]","['', 4, 8, 24, 24, -4, -4, -24, -48, 2, -4, 48, 48]",2.0607781207756518e+18,training,19.0,41.0,"[None, None, None]","[2, -4, 48]","['0', '0', '9', '10', '12']","['left', 'left', 'down']","[4956, 5515, 6123]","{'click': {'state': {'target': ['4', '3', '7', '8', '12'], 'time': [1345, 2067, 2624, 3098, 3770]}, 'edge': {'target': [], 'time': []}}, 'mouseover': {'state': {'target': ['9', '4', '3', '3', '7', '6', '8', '12', '12', '11', '10'], 'time': [992, 1257, 1758, 1978, 2424, 2790, 2969, 3395, 3677, 4072, 4256]}, 'edge': {'target': [], 'time': []}}, 'mouseout': {'state': {'target': ['9', '0', '9', '4', '3', '3', '7', '6', '8', '12', '12', '11', '10', '8'], 'time': [272, 923, 1009, 1527, 1776, 2241, 2757, 2840, 3301, 3495, 4023, 4223, 4322, 7719]}, 'edge': {'target': [], 'time': []}}}",8.90,10179.0,,
,mouselab-mdp,365656,0.0-3.0-2.0-0.0,,"[1637, 31, 101]",,,2373,[],"[0, 0, 0, 0, 0, 0, 0, 0, 0, 0, 0, 0, 0]","['', -4, -4, -24, 24, -2, 4, 24, 24, 2, -8, 48, 48]",-3.858448030437114e+18,test,20.0,41.0,"[None, None, None]","[2, -8, 48]","['0', '0', '9', '10', '12']","['left', 'left', 'down']","[2368, 2936, 3561]","{'click': {'state': {'target': ['12'], 'time': [1262]}, 'edge': {'target': [], 'time': []}}, 'mouseover': {'state': {'target': ['9', '12', '9', '0'], 'time': [963, 1046, 1546, 1797]}, 'edge': {'target': [], 'time': []}}, 'mouseout': {'state': {'target': ['0', '9', '12', '9', '0', '5', '1', '0', '9'], 'time': [780, 981, 1397, 1763, 1842, 4713, 4891, 4963, 5379]}, 'edge': {'target': [], 'time': []}}}",9.74,10280.0,,
,mouselab-mdp,376043,0.0-3.0-2.0-1.0,,"[2263, 26, 170]",,,2373,[],"[0, 0, 0, 0, 0, 0, 0, 0, 0, 0, 0, 0, 0]","['', -4, -4, 24, -24, -4, 4, 24, 24, 4, 4, 48, -48]",-7.890144164692454e+18,test,21.0,54.0,"[None, None, None]","[4, 4, 48]","['0', '0', '9', '10', '11']","['left', 'left', 'up']","[2938, 3528, 4209]","{'click': {'state': {'target': ['12', '11'], 'time': [1095, 1805]}, 'edge': {'target': [], 'time': []}}, 'mouseover': {'state': {'target': ['9', '12', '11', '11'], 'time': [821, 1023, 1502, 1736]}, 'edge': {'target': [], 'time': []}}, 'mouseout': {'state': {'target': ['0', '9', '12', '11', '11', '1'], 'time': [772, 886, 1272, 1536, 1986, 5268]}, 'edge': {'target': [], 'time': []}}}",9.68,10227.0,,
,mouselab-mdp,385776,0.0-3.0-2.0-2.0,,"[3918, 16, 39]",,,2373,[],"[0, 0, 0, 0, 0, 0, 0, 0, 0, 0, 0, 0, 0]","['', -2, -8, -24, 48, 4, 8, 48, -48, -4, -8, -24, -48]",-1.966432234622665e+18,test,22.0,56.0,"[None, None, None]","[4, 8, 48]","['0', '0', '5', '6', '7']","['right', 'right', 'up']","[4648, 5180, 5765]","{'click': {'state': {'target': ['11', '12', '8', '7'], 'time': [1258, 2110, 2761, 3395]}, 'edge': {'target': [], 'time': []}}, 'mouseover': {'state': {'target': ['9', '11', '4', '12', '8', '8', '6', '7', '5'], 'time': [816, 1078, 1629, 2011, 2411, 2662, 3094, 3310, 3910]}, 'edge': {'target': [], 'time': []}}, 'mouseout': {'state': {'target': ['0', '9', '11', '4', '12', '8', '8', '6', '7', '5'], 'time': [794, 945, 1396, 1746, 2244, 2444, 2912, 3114, 3532, 3927]}, 'edge': {'target': [], 'time': []}}}",8.73,9588.0,,
,mouselab-mdp,396960,0.0-3.0-2.0-3.0,,"[3195, 29, 99]",,,2373,[],"[0, 0, 0, 0, 0, 0, 0, 0, 0, 0, 0, 0, 0]","['', 2, -4, 48, -24, -2, 4, 48, -48, 2, 8, -48, 24]",-3.024950732778212e+17,test,23.0,44.0,"[None, None, None]","[2, -4, 48]","['0', '0', '1', '2', '3']","['up', 'up', 'right']","[5714, 6258, 6881]","{'click': {'state': {'target': ['4', '3'], 'time': [3526, 4237]}, 'edge': {'target': [], 'time': []}}, 'mouseover': {'state': {'target': ['4', '4', '3', '7', '5', '1'], 'time': [3243, 3458, 4125, 4477, 4678, 4991]}, 'edge': {'target': [], 'time': []}}, 'mouseout': {'state': {'target': ['6', '5', '11', '4', '2', '7', '0', '4', '4', '3', '7', '5'], 'time': [1645, 1660, 1725, 1758, 1776, 1944, 2609, 3408, 3677, 4375, 4642, 4708]}, 'edge': {'target': [], 'time': []}}}",10.52,11057.0,,
,mouselab-mdp,408041,0.0-3.0-2.0-4.0,,"[2355, 39, 112]",,,2373,[],"[0, 0, 0, 0, 0, 0, 0, 0, 0, 0, 0, 0, 0]","['', 4, -4, 24, -24, -2, -4, -24, -24, 2, -4, 48, 24]",1.598574912455298e+18,test,24.0,45.0,"[None, None, None]","[2, -4, 48]","['0', '0', '9', '10', '11']","['left', 'left', 'up']","[3841, 4402, 5033]","{'click': {'state': {'target': ['11'], 'time': [2696]}, 'edge': {'target': [], 'time': []}}, 'mouseover': {'state': {'target': ['9', '11', '10', '12'], 'time': [2192, 2542, 2878, 3011]}, 'edge': {'target': [], 'time': []}}, 'mouseout': {'state': {'target': ['1', '4', '1', '0', '9', '11', '10', '12'], 'time': [542, 816, 892, 2045, 2275, 2859, 2943, 3212]}, 'edge': {'target': [], 'time': []}}}",10.49,10842.0,,
,mouselab-mdp,419984,0.0-3.0-2.0-5.0,,"[3508, 17, 138]",,,2373,[],"[0, 0, 0, 0, 0, 0, 0, 0, 0, 0, 0, 0, 0]","['', -2, -8, -48, -24, 2, -8, -48, 48, -2, 4, -48, -48]",-9.742857968514916e+17,test,25.0,39.0,"[None, None, None]","[2, -8, 48]","['0', '0', '5', '6', '8']","['right', 'right', 'down']","[5550, 6087, 6773]","{'click': {'state': {'target': ['11', '12', '8'], 'time': [3083, 3710, 4322]}, 'edge': {'target': [], 'time': []}}, 'mouseover': {'state': {'target': ['0', '10', '11', '11', '11', '10', '12', '12', '8', '6'], 'time': [2112, 2466, 2500, 2817, 2950, 3315, 3368, 3600, 4016, 4650]}, 'edge': {'target': [], 'time': []}}, 'mouseout': {'state': {'target': ['2', '9', '0', '0', '10', '11', '11', '11', '10', '12', '12', '8', '6', '6', '1', '0', '0'], 'time': [1416, 1582, 1850, 2145, 2485, 2599, 2875, 3250, 3349, 3417, 3872, 4482, 4887, 8415, 8749, 8800, 10813]}, 'edge': {'target': [], 'time': []}}}",11.04,11829.0,,
,mouselab-mdp,430504,0.0-3.0-2.0-6.0,,"[4527, 86, 28]",,,2373,[],"[0, 0, 0, 0, 0, 0, 0, 0, 0, 0, 0, 0, 0]","['', -2, 4, -48, -24, -4, -8, -48, -24, -2, 4, -24, 24]",4.506983446382795e+18,test,26.0,20.0,"[None, None, None]","[-2, 4, 24]","['0', '0', '9', '10', '12']","['left', 'left', 'down']","[5249, 5856, 6392]","{'click': {'state': {'target': ['11', '12', '8', '7', '3', '4'], 'time': [1223, 1741, 2361, 2861, 3493, 3981]}, 'edge': {'target': [], 'time': []}}, 'mouseover': {'state': {'target': ['11', '10', '12', '8', '6', '7', '3', '2', '4', '9'], 'time': [1063, 1429, 1563, 2162, 2612, 2677, 3381, 3712, 3814, 4261]}, 'edge': {'target': [], 'time': []}}, 'mouseout': {'state': {'target': ['1', '11', '10', '12', '8', '6', '7', '3', '2', '4', '9', '0', '9'], 'time': [365, 1381, 1512, 1896, 2494, 2638, 3036, 3653, 3765, 4128, 4394, 8079, 8394]}, 'edge': {'target': [], 'time': []}}}",9.72,10432.0,,
,mouselab-mdp,440821,0.0-3.0-2.0-7.0,,"[1652, 12, 32]",,,2373,[],"[0, 0, 0, 0, 0, 0, 0, 0, 0, 0, 0, 0, 0]","['', 2, -4, -24, -48, 4, -8, 48, -48, 2, -8, 48, -48]",2.735284467270542e+18,test,27.0,41.0,"[None, None, None]","[2, -8, 48]","['0', '0', '9', '10', '11']","['left', 'left', 'up']","[2343, 2879, 3431]","{'click': {'state': {'target': ['11'], 'time': [1317]}, 'edge': {'target': [], 'time': []}}, 'mouseover': {'state': {'target': ['9', '11', '10', '10'], 'time': [963, 1197, 1497, 1747]}, 'edge': {'target': [], 'time': []}}, 'mouseout': {'state': {'target': ['0', '9', '11', '10', '10', '5', '6', '6', '5'], 'time': [933, 980, 1479, 1623, 1764, 4597, 4614, 4845, 4946]}, 'edge': {'target': [], 'time': []}}}",9.70,10203.0,,
,mouselab-mdp,450416,0.0-3.0-2.0-8.0,,"[3757, 37, 397]",,,2373,[],"[0, 0, 0, 0, 0, 0, 0, 0, 0, 0, 0, 0, 0]","['', 2, 8, -48, -48, -4, 8, 24, 24, -2, 8, -24, 48]",-3.2359844448818867e+18,test,28.0,49.0,"[None, None, None]","[-2, 8, 48]","['0', '0', '9', '10', '12']","['left', 'left', 'down']","[4641, 5200, 6112]","{'click': {'state': {'target': ['4', '3', '7', '8', '12'], 'time': [1271, 1765, 2214, 2888, 3546]}, 'edge': {'target': [], 'time': []}}, 'mouseover': {'state': {'target': ['4', '2', '3', '7', '6', '8', '12'], 'time': [1158, 1461, 1579, 2025, 2410, 2476, 3375]}, 'edge': {'target': [], 'time': []}}, 'mouseout': {'state': {'target': ['0', '1', '4', '2', '3', '7', '6', '8', '12'], 'time': [410, 592, 1411, 1543, 1935, 2358, 2426, 3125, 3851]}, 'edge': {'target': [], 'time': []}}}",8.89,9448.0,,
,mouselab-mdp,460810,0.0-3.0-2.0-9.0,,"[2262, 72, 90]",,,2373,[],"[0, 0, 0, 0, 0, 0, 0, 0, 0, 0, 0, 0, 0]","['', -4, -4, 48, -24, -4, 4, -48, 48, -2, -8, 24, 48]",5.850565339829589e+18,test,29.0,36.0,"[None, None, None]","[-2, -8, 48]","['0', '0', '9', '10', '12']","['left', 'left', 'down']","[3918, 4501, 5102]","{'click': {'state': {'target': ['11', '12'], 'time': [2339, 2850]}, 'edge': {'target': [], 'time': []}}, 'mouseover': {'state': {'target': ['0', '9', '11', '10', '12'], 'time': [1744, 1994, 2248, 2494, 2609]}, 'edge': {'target': [], 'time': []}}, 'mouseout': {'state': {'target': ['0', '0', '9', '11', '10', '12'], 'time': [1479, 1977, 2012, 2477, 2554, 3060]}, 'edge': {'target': [], 'time': []}}}",9.66,10262.0,,
,mouselab-mdp,470208,0.0-3.0-2.0-10.0,,"[3159, 85, 133]",,,2373,[],"[0, 0, 0, 0, 0, 0, 0, 0, 0, 0, 0, 0, 0]","['', 2, -4, -48, -24, -2, -4, 48, -24, 4, 4, 48, -24]",7.520829653297501e+18,test,30.0,39.0,"[None, None, None]","[-2, -4, 48]","['0', '0', '5', '6', '7']","['right', 'right', 'up']","[3950, 4590, 5237]","{'click': {'state': {'target': ['4', '3', '7'], 'time': [1251, 1787, 2611]}, 'edge': {'target': [], 'time': []}}, 'mouseover': {'state': {'target': ['4', '2', '3', '7', '7', '6', '8', '6'], 'time': [932, 1432, 1616, 2061, 2489, 2765, 3032, 3300]}, 'edge': {'target': [], 'time': []}}, 'mouseout': {'state': {'target': ['0', '4', '2', '3', '7', '7', '6', '8', '6'], 'time': [382, 1400, 1548, 1982, 2215, 2763, 2776, 3203, 3342]}, 'edge': {'target': [], 'time': []}}}",8.86,9270.0,,
,mouselab-mdp,481694,0.0-3.0-2.0-11.0,,"[5023, 41, 101]",,,2373,[],"[0, 0, 0, 0, 0, 0, 0, 0, 0, 0, 0, 0, 0]","['', -4, -4, -24, 24, -4, -8, -48, -48, 2, -4, -24, 24]",-5.712514638697657e+18,test,31.0,16.0,"[None, None, None]","[2, -4, 24]","['0', '0', '9', '10', '12']","['left', 'left', 'down']","[6550, 7117, 7761]","{'click': {'state': {'target': ['11', '12', '8', '7', '3', '4'], 'time': [2194, 2786, 3490, 4042, 4738, 5162]}, 'edge': {'target': [], 'time': []}}, 'mouseover': {'state': {'target': ['11', '12', '8', '6', '7', '7', '3', '3', '2', '4'], 'time': [2120, 2669, 3418, 3802, 3834, 3985, 4352, 4651, 4935, 5067]}, 'edge': {'target': [], 'time': []}}, 'mouseout': {'state': {'target': ['1', '0', '11', '12', '8', '6', '7', '7', '7', '3', '3', '2', '4', '7', '8'], 'time': [985, 1541, 2369, 2935, 3785, 3819, 3851, 4218, 4335, 4401, 4887, 4986, 5335, 9664, 9916]}, 'edge': {'target': [], 'time': []}}}",9.53,11378.0,,
,mouselab-mdp,490984,0.0-3.0-2.0-12.0,,"[1594, 58, 466]",,,2373,[],"[0, 0, 0, 0, 0, 0, 0, 0, 0, 0, 0, 0, 0]","['', 2, -4, -48, 48, -4, -8, -24, -24, -4, 4, -48, 24]",-6.157917720371e+18,test,32.0,45.0,"[None, None, None]","[2, -4, 48]","['0', '0', '1', '2', '4']","['up', 'up', 'left']","[2209, 2777, 3769]","{'click': {'state': {'target': ['4'], 'time': [1148]}, 'edge': {'target': [], 'time': []}}, 'mouseover': {'state': {'target': ['1', '2', '4', '2', '3'], 'time': [739, 898, 967, 1301, 1699]}, 'edge': {'target': [], 'time': []}}, 'mouseout': {'state': {'target': ['0', '1', '2', '4', '2', '3'], 'time': [365, 791, 915, 1270, 1319, 1721]}, 'edge': {'target': [], 'time': []}}}",8.62,9168.0,,
,mouselab-mdp,502176,0.0-3.0-2.0-13.0,,"[1567, 49, 83]",,,2373,[],"[0, 0, 0, 0, 0, 0, 0, 0, 0, 0, 0, 0, 0]","['', -4, 8, -48, 48, 2, -4, 48, -48, 2, -8, 24, -48]",5.258592950055133e+18,test,33.0,51.0,"[None, None, None]","[-4, 8, 48]","['0', '0', '1', '2', '4']","['up', 'up', 'left']","[2973, 3541, 4157]","{'click': {'state': {'target': ['4'], 'time': [1890]}, 'edge': {'target': [], 'time': []}}, 'mouseover': {'state': {'target': ['4', '2', '2'], 'time': [1641, 2137, 2353]}, 'edge': {'target': [], 'time': []}}, 'mouseout': {'state': {'target': ['1', '0', '0', '4', '2', '2', '3', '2'], 'time': [905, 1055, 1420, 2055, 2188, 6008, 6102, 6453]}, 'edge': {'target': [], 'time': []}}}",10.40,11036.0,,
,mouselab-mdp,513768,0.0-3.0-2.0-14.0,,"[4908, 35, 64]",,,2373,[],"[0, 0, 0, 0, 0, 0, 0, 0, 0, 0, 0, 0, 0]","['', -2, 8, 24, 48, 2, -4, 48, -48, 2, 8, 24, -48]",4.460497769895528e+18,test,34.0,43.0,"[None, None, None]","[2, -4, 48]","['0', '0', '5', '6', '7']","['right', 'right', 'up']","[5687, 6254, 6855]","{'click': {'state': {'target': ['11', '12', '7'], 'time': [3156, 3700, 4467]}, 'edge': {'target': [], 'time': []}}, 'mouseover': {'state': {'target': ['9', '10', '11', '10', '12', '7', '5'], 'time': [2702, 2753, 3003, 3334, 3569, 4362, 4951]}, 'edge': {'target': [], 'time': []}}, 'mouseout': {'state': {'target': ['12', '0', '9', '10', '11', '10', '12', '7', '5'], 'time': [319, 2687, 2737, 2987, 3307, 3452, 4002, 4602, 4968]}, 'edge': {'target': [], 'time': []}}}",9.79,11431.0,,
,mouselab-mdp,524497,0.0-3.0-2.0-15.0,,"[4558, 65, 369]",,,2373,[],"[0, 0, 0, 0, 0, 0, 0, 0, 0, 0, 0, 0, 0]","['', -2, -8, -48, 24, -4, -4, -24, -48, 2, -8, 24, 24]",8.324563381047186e+18,test,35.0,12.0,"[None, None, None]","[2, -8, 24]","['0', '0', '9', '10', '11']","['left', 'left', 'up']","[6598, 7174, 8061]","{'click': {'state': {'target': ['4', '3', '7', '8', '12', '11'], 'time': [2639, 3114, 3651, 4258, 4902, 5380]}, 'edge': {'target': [], 'time': []}}, 'mouseover': {'state': {'target': ['1', '4', '2', '3', '7', '6', '8', '12', '10', '11', '5'], 'time': [2211, 2459, 2791, 3010, 3440, 3789, 4141, 4823, 5156, 5193, 5855]}, 'edge': {'target': [], 'time': []}}, 'mouseout': {'state': {'target': ['6', '0', '1', '4', '2', '3', '7', '6', '8', '12', '10', '11', '5', '5', '1', '4', '2'], 'time': [1011, 1791, 2291, 2756, 2908, 3274, 3776, 3810, 4445, 5122, 5173, 5522, 5873, 9891, 9916, 9947, 10289]}, 'edge': {'target': [], 'time': []}}}",10.04,10535.0,,
,mouselab-mdp,534020,0.0-3.0-2.0-16.0,,"[2004, 149, 104]",,,2373,[],"[0, 0, 0, 0, 0, 0, 0, 0, 0, 0, 0, 0, 0]","['', -4, 8, 48, -48, -4, -4, -48, 48, -2, 8, 24, 48]",-4.689310195682358e+18,test,36.0,50.0,"[None, None, None]","[-4, 8, 48]","['0', '0', '1', '2', '3']","['up', 'up', 'right']","[2891, 3553, 4178]","{'click': {'state': {'target': ['4', '3'], 'time': [1247, 1734]}, 'edge': {'target': [], 'time': []}}, 'mouseover': {'state': {'target': ['4', '2', '3', '7'], 'time': [1037, 1388, 1501, 1934]}, 'edge': {'target': [], 'time': []}}, 'mouseout': {'state': {'target': ['5', '1', '4', '0', '4', '2', '3', '7', '7'], 'time': [234, 301, 401, 896, 1385, 1407, 1886, 2167, 5984]}, 'edge': {'target': [], 'time': []}}}",8.89,9421.0,,
,mouselab-mdp,545513,0.0-3.0-2.0-17.0,,"[1961, 54, 64]",,,2373,[],"[0, 0, 0, 0, 0, 0, 0, 0, 0, 0, 0, 0, 0]","['', -2, 8, 48, 24, 4, 8, 48, 48, -4, 4, 24, 24]",8.067169575405887e+17,test,37.0,59.0,"[None, None, None]","[4, 8, 48]","['0', '0', '5', '6', '7']","['right', 'right', 'up']","[2916, 3506, 4142]","{'click': {'state': {'target': ['7'], 'time': [1736]}, 'edge': {'target': [], 'time': []}}, 'mouseover': {'state': {'target': ['5', '7', '6'], 'time': [1466, 1534, 1900]}, 'edge': {'target': [], 'time': []}}, 'mouseout': {'state': {'target': ['0', '5', '7', '6', '12'], 'time': [969, 1501, 1866, 2198, 5590]}, 'edge': {'target': [], 'time': []}}}",9.96,11315.0,,
,mouselab-mdp,555288,0.0-3.0-2.0-18.0,,"[1765, 115, 107]",,,2373,[],"[0, 0, 0, 0, 0, 0, 0, 0, 0, 0, 0, 0, 0]","['', -2, -4, 24, 24, 4, 8, -24, 48, -4, -8, -48, 24]",-1.7534982563480835e+18,test,38.0,59.0,"[None, None, None]","[4, 8, 48]","['0', '0', '5', '6', '8']","['right', 'right', 'down']","[2448, 3079, 3705]","{'click': {'state': {'target': ['8'], 'time': [1238]}, 'edge': {'target': [], 'time': []}}, 'mouseover': {'state': {'target': ['5', '8'], 'time': [793, 1030]}, 'edge': {'target': [], 'time': []}}, 'mouseout': {'state': {'target': ['0', '5', '8'], 'time': [710, 929, 1729]}, 'edge': {'target': [], 'time': []}}}",8.69,9639.0,,
,mouselab-mdp,565799,0.0-3.0-2.0-19.0,,"[4353, 192, 105]",,,2373,[],"[0, 0, 0, 0, 0, 0, 0, 0, 0, 0, 0, 0, 0]","['', 4, -8, -24, -24, -4, 8, -24, 24, -2, -8, -48, -48]",3.457294074559537e+18,test,39.0,22.0,"[None, None, None]","[-4, 8, 24]","['0', '0', '5', '6', '8']","['right', 'right', 'down']","[5122, 5831, 6464]","{'click': {'state': {'target': ['12', '11', '4', '3', '7', '8'], 'time': [1621, 2274, 2833, 3271, 3671, 4112]}, 'edge': {'target': [], 'time': []}}, 'mouseover': {'state': {'target': ['6', '5', '9', '10', '12', '10', '11', '4', '2', '3', '7', '6', '8'], 'time': [810, 969, 1253, 1329, 1456, 2002, 2093, 2651, 3001, 3163, 3534, 3852, 4017]}, 'edge': {'target': [], 'time': []}}, 'mouseout': {'state': {'target': ['0', '6', '5', '9', '10', '12', '10', '11', '4', '2', '3', '7', '6', '8', '12', '12'], 'time': [808, 936, 1004, 1285, 1389, 1768, 2091, 2418, 2970, 3085, 3428, 3834, 3950, 4268, 9316, 9783]}, 'edge': {'target': [], 'time': []}}}",9.77,10362.0,,
,mouselab-mdp,315773,0.0-3.0-1.0-0.0,,"[11114, 430, 336]",,,1737,[],"[0, 0, 0, 0, 0, 0, 0, 0, 0, 0, 0, 0, 0]","['', -2, -4, 24, 24, 4, 8, -24, 48, -4, -8, -48, 24]",-1.7534982563480835e+18,training,0.0,57.0,"[None, None, None]","[4, 8, 48]","['0', '0', '5', '6', '8']","['right', 'right', 'down']","[13359, 14302, 15159]","{'click': {'state': {'target': ['6', '10', '2'], 'time': [8202, 10163, 11874]}, 'edge': {'target': [], 'time': []}}, 'mouseover': {'state': {'target': ['6', '5', '9', '10', '0', '2', '1', '5'], 'time': [7939, 8439, 9788, 9888, 10888, 11555, 12204, 12355]}, 'edge': {'target': [], 'time': []}}, 'mouseout': {'state': {'target': ['5', '0', '6', '5', '9', '10', '0', '2', '1', '5', '6'], 'time': [1775, 2424, 8405, 8472, 9805, 10571, 11071, 12121, 12304, 12387, 12438]}, 'edge': {'target': [], 'time': []}}}",15.65,17767.0,,
,mouselab-mdp,332349,0.0-3.0-1.0-1.0,,"[5889, 323, 362]",,,1737,[],"[0, 0, 0, 0, 0, 0, 0, 0, 0, 0, 0, 0, 0]","['', -2, -8, -48, -24, 2, -8, -48, 48, -2, 4, -48, -48]",-9.742857968514916e+17,training,1.0,39.0,"[None, None, None]","[2, -8, 48]","['0', '0', '5', '6', '8']","['right', 'right', 'down']","[8315, 9147, 10019]","{'click': {'state': {'target': ['9', '1', '5'], 'time': [5710, 6559, 7094]}, 'edge': {'target': [], 'time': []}}, 'mouseover': {'state': {'target': ['5', '1', '1', '9', '1', '1', '5'], 'time': [2724, 3340, 3997, 5489, 6122, 6405, 6922]}, 'edge': {'target': [], 'time': []}}, 'mouseout': {'state': {'target': ['6', '5', '1', '9', '0', '5', '1', '1', '9', '1', '1', '5', '5', '0'], 'time': [1423, 1440, 1590, 1923, 2640, 3123, 3573, 4872, 5906, 6156, 6722, 7338, 13203, 15286]}, 'edge': {'target': [], 'time': []}}}",12.43,16515.0,,
,mouselab-mdp,344493,0.0-3.0-1.0-2.0,,"[2928, 233, 270]",,,1737,[],"[0, 0, 0, 0, 0, 0, 0, 0, 0, 0, 0, 0, 0]","['', 2, -4, 48, -48, 2, -8, 24, -24, -4, -8, 24, -24]",-8.977351099475699e+18,training,2.0,-53.0,"[None, None, None]","[2, -4, -48]","['0', '0', '1', '2', '4']","['up', 'up', 'left']","[4229, 4970, 5757]","{'click': {'state': {'target': ['9', '1', '5'], 'time': [1970, 2399, 2824]}, 'edge': {'target': [], 'time': []}}, 'mouseover': {'state': {'target': ['0', '9', '1', '5'], 'time': [1602, 1785, 2219, 2685]}, 'edge': {'target': [], 'time': []}}, 'mouseout': {'state': {'target': ['0', '0', '9', '1', '5'], 'time': [1202, 1710, 2118, 2602, 3036]}, 'edge': {'target': [], 'time': []}}}",10.30,12093.0,,
,mouselab-mdp,357069,0.0-3.0-1.0-3.0,,"[4996, 298, 249]",,,1737,[],"[0, 0, 0, 0, 0, 0, 0, 0, 0, 0, 0, 0, 0]","['', -2, 8, 24, -48, 4, 4, -48, -24, 2, 8, -48, 48]",5.188170829716248e+18,training,3.0,27.0,"[None, None, None]","[-2, 8, 24]","['0', '0', '1', '2', '3']","['up', 'up', 'right']","[7094, 7886, 8654]","{'click': {'state': {'target': ['10', '2', '6'], 'time': [3809, 4409, 5002]}, 'edge': {'target': [], 'time': []}}, 'mouseover': {'state': {'target': ['9', '10', '2', '6'], 'time': [3405, 3555, 4171, 4771]}, 'edge': {'target': [], 'time': []}}, 'mouseout': {'state': {'target': ['0', '9', '10', '2', '6'], 'time': [3271, 3521, 3971, 4604, 5187]}, 'edge': {'target': [], 'time': []}}}",12.10,12526.0,,
,mouselab-mdp,367973,0.0-3.0-1.0-4.0,,"[3092, 329, 182]",,,1737,[],"[0, 0, 0, 0, 0, 0, 0, 0, 0, 0, 0, 0, 0]","['', -2, -4, 48, 24, -2, -4, -48, -24, -4, -4, 24, 48]",-3.1773427201591757e+18,training,4.0,-57.0,"[None, None, None]","[-2, -4, -48]","['0', '0', '5', '6', '7']","['right', 'right', 'up']","[4583, 5423, 6143]","{'click': {'state': {'target': ['10', '2', '6'], 'time': [2122, 2714, 3274]}, 'edge': {'target': [], 'time': []}}, 'mouseover': {'state': {'target': ['9', '10', '1', '2', '6'], 'time': [1777, 1943, 2376, 2526, 3010]}, 'edge': {'target': [], 'time': []}}, 'mouseout': {'state': {'target': ['8', '0', '9', '10', '1', '2', '6'], 'time': [943, 1394, 1826, 2259, 2393, 2843, 7158]}, 'edge': {'target': [], 'time': []}}}",10.49,10855.0,,
,mouselab-mdp,377941,0.0-3.0-1.0-5.0,,"[3265, 317, 172]",,,1737,[],"[0, 0, 0, 0, 0, 0, 0, 0, 0, 0, 0, 0, 0]","['', -2, 8, -24, -24, -2, 4, -48, 24, -4, -8, 48, -48]",5.44134319392284e+18,training,5.0,-21.0,"[None, None, None]","[-2, 8, -24]","['0', '0', '1', '2', '4']","['up', 'up', 'left']","[4864, 5688, 6376]","{'click': {'state': {'target': ['10', '2', '6'], 'time': [2155, 2788, 3571]}, 'edge': {'target': [], 'time': []}}, 'mouseover': {'state': {'target': ['9', '10', '2', '6', '6'], 'time': [1786, 1953, 2636, 3104, 3469]}, 'edge': {'target': [], 'time': []}}, 'mouseout': {'state': {'target': ['8', '0', '9', '10', '2', '6', '6'], 'time': [853, 1386, 1886, 2269, 2919, 3186, 3802]}, 'edge': {'target': [], 'time': []}}}",9.60,9920.0,,
