success,trial_type,time_elapsed,internal_node_id,view_history,rt,responses,correct,pid,revealed_states,num_clicks_accrued,state_rewards,trial_id,block,trial_index,score,simulation_mode,rewards,path,actions,action_times,queries,displayed_time,trial_time,stimulus,button_pressed
,survey-multi-choice,48650,0.0-1.0-1.0,,29907.0,"{""Q0"":""$-48 to $48"",""Q1"":""Yes, but the cost for clicking on nodes varies."",""Q2"":""One time"",""Q3"":""The better I perform the higher my bonus will be."",""Q4"":""No, the amount of cash at each node of the web may be different each time.""}","{'Q0': '$-48 to $48', 'Q1': 'No, the cost is always $1.00.', 'Q2': 'There is no limit', 'Q3': 'The better I perform the higher my bonus will be.', 'Q4': 'No, the amount of cash at each node of the web may be different each time.'}",2371,,,,,,,,,,,,,,,,,
,survey-multi-choice,64927,0.0-1.0-1.0,,23811,"{""Q0"":""$-48 to $48"",""Q1"":""No, the cost is always $1.00."",""Q2"":""One time"",""Q3"":""The better I perform the higher my bonus will be."",""Q4"":""No, the amount of cash at each node of the web may be different each time.""}","{'Q0': '$-48 to $48', 'Q1': 'No, the cost is always $1.00.', 'Q2': 'There is no limit', 'Q3': 'The better I perform the higher my bonus will be.', 'Q4': 'No, the amount of cash at each node of the web may be different each time.'}",1731,,,,,,,,,,,,,,,,,
,survey-multi-choice,183268,0.0-1.1-1.1,,64112,"{""Q0"":""$-48 to $48"",""Q1"":""No, the cost is always $1.00."",""Q2"":""There is no limit"",""Q3"":""The better I perform the higher my bonus will be."",""Q4"":""No, the amount of cash at each node of the web may be different each time.""}","{'Q0': '$-48 to $48', 'Q1': 'No, the cost is always $1.00.', 'Q2': 'There is no limit', 'Q3': 'The better I perform the higher my bonus will be.', 'Q4': 'No, the amount of cash at each node of the web may be different each time.'}",1731,,,,,,,,,,,,,,,,,
,survey-multi-choice,966957,0.0-3.0-3.0,,22410,"{""Q0"":""$-4 to $4"",""Q1"":""$-8 to $8"",""Q2"":""$-48 to $48"",""Q3"":""No, the cost is always $1.00."",""Q4"":""Very motivated""}",,1731,,,,,,,,,,,,,,,,,
,survey-multi-choice,45274,0.0-1.0-1.0,,27675.0,"{""Q0"":""$-48 to $48"",""Q1"":""Yes, but the cost for clicking on nodes varies."",""Q2"":""One time"",""Q3"":""I will receive a $1 bonus if I perform well, otherwise I will receive no bonus."",""Q4"":""No, the amount of cash at each node of the web may be different each time.""}","{'Q0': '$-48 to $48', 'Q1': 'No, the cost is always $1.00.', 'Q2': 'There is no limit', 'Q3': 'The better I perform the higher my bonus will be.', 'Q4': 'No, the amount of cash at each node of the web may be different each time.'}",2365,,,,,,,,,,,,,,,,,
,survey-multi-choice,416523,0.0-1.1-1.1,,292950.0,"{""Q0"":""$-48 to $48"",""Q1"":""No, the cost is always $1.00."",""Q2"":""One time"",""Q3"":""I will receive a $1 bonus if I perform well, otherwise I will receive no bonus."",""Q4"":""No, the amount of cash at each node of the web may be different each time.""}","{'Q0': '$-48 to $48', 'Q1': 'No, the cost is always $1.00.', 'Q2': 'There is no limit', 'Q3': 'The better I perform the higher my bonus will be.', 'Q4': 'No, the amount of cash at each node of the web may be different each time.'}",2365,,,,,,,,,,,,,,,,,
,survey-multi-choice,450926,0.0-1.2-1.2,,9972.0,"{""Q0"":""$-48 to $48"",""Q1"":""Yes, but the cost for clicking on nodes varies."",""Q2"":""There is no limit"",""Q3"":""I will receive a $1 bonus if I perform well, otherwise I will receive no bonus."",""Q4"":""No, the amount of cash at each node of the web may be different each time.""}","{'Q0': '$-48 to $48', 'Q1': 'No, the cost is always $1.00.', 'Q2': 'There is no limit', 'Q3': 'The better I perform the higher my bonus will be.', 'Q4': 'No, the amount of cash at each node of the web may be different each time.'}",2365,,,,,,,,,,,,,,,,,
,survey-multi-choice,479875,0.0-1.3-1.3,,12088.0,"{""Q0"":""$-48 to $48"",""Q1"":""It is more costly to inspect 'sticky' nodes."",""Q2"":""There is no limit"",""Q3"":""I will receive a $1 bonus if I perform well, otherwise I will receive no bonus."",""Q4"":""No, the amount of cash at each node of the web may be different each time.""}","{'Q0': '$-48 to $48', 'Q1': 'No, the cost is always $1.00.', 'Q2': 'There is no limit', 'Q3': 'The better I perform the higher my bonus will be.', 'Q4': 'No, the amount of cash at each node of the web may be different each time.'}",2365,,,,,,,,,,,,,,,,,
,survey-multi-choice,108924,0.0-1.0-1.0,,24655,"{""Q0"":""$-48 to $48"",""Q1"":""No, the cost is always $1.00."",""Q2"":""There is no limit"",""Q3"":""The better I perform the higher my bonus will be."",""Q4"":""No, the amount of cash at each node of the web may be different each time.""}","{'Q0': '$-48 to $48', 'Q1': 'No, the cost is always $1.00.', 'Q2': 'There is no limit', 'Q3': 'The better I perform the higher my bonus will be.', 'Q4': 'No, the amount of cash at each node of the web may be different each time.'}",2372,,,,,,,,,,,,,,,,,
,survey-multi-choice,584098,0.0-3.0-3.0,,26115,"{""Q0"":""$-4 to $4"",""Q1"":""$-8 to $8"",""Q2"":""$-48 to $48"",""Q3"":""No, the cost is always $1.00."",""Q4"":""Very motivated""}",,2372,,,,,,,,,,,,,,,,,
,survey-multi-choice,113432,0.0-1.0-1.0,,49144,"{""Q0"":""$-48 to $48"",""Q1"":""No, the cost is always $1.00."",""Q2"":""There is no limit"",""Q3"":""The better I perform the higher my bonus will be."",""Q4"":""No, the amount of cash at each node of the web may be different each time.""}","{'Q0': '$-48 to $48', 'Q1': 'No, the cost is always $1.00.', 'Q2': 'There is no limit', 'Q3': 'The better I perform the higher my bonus will be.', 'Q4': 'No, the amount of cash at each node of the web may be different each time.'}",2373,,,,,,,,,,,,,,,,,
,survey-multi-choice,625455,0.0-3.0-3.0,,59608,"{""Q0"":""$-4 to $4"",""Q1"":""$-8 to $8"",""Q2"":""$-48 to $48"",""Q3"":""No, the cost is always $1.00."",""Q4"":""Very motivated""}",,2373,,,,,,,,,,,,,,,,,
,survey-multi-choice,163926,0.0-1.0-1.0,,45543,"{""Q0"":""$-48 to $48"",""Q1"":""No, the cost is always $1.00."",""Q2"":""One time"",""Q3"":""The better I perform the higher my bonus will be."",""Q4"":""No, the amount of cash at each node of the web may be different each time.""}","{'Q0': '$-48 to $48', 'Q1': 'No, the cost is always $1.00.', 'Q2': 'There is no limit', 'Q3': 'The better I perform the higher my bonus will be.', 'Q4': 'No, the amount of cash at each node of the web may be different each time.'}",1737,,,,,,,,,,,,,,,,,
,survey-multi-choice,237709,0.0-1.1-1.1,,44252,"{""Q0"":""$-48 to $48"",""Q1"":""No, the cost is always $1.00."",""Q2"":""One time"",""Q3"":""The better I perform the higher my bonus will be."",""Q4"":""Yes.""}","{'Q0': '$-48 to $48', 'Q1': 'No, the cost is always $1.00.', 'Q2': 'There is no limit', 'Q3': 'The better I perform the higher my bonus will be.', 'Q4': 'No, the amount of cash at each node of the web may be different each time.'}",1737,,,,,,,,,,,,,,,,,
,survey-multi-choice,294182,0.0-1.2-1.2,,8777,"{""Q0"":""$-48 to $48"",""Q1"":""No, the cost is always $1.00."",""Q2"":""There is no limit"",""Q3"":""The better I perform the higher my bonus will be."",""Q4"":""No, the amount of cash at each node of the web may be different each time.""}","{'Q0': '$-48 to $48', 'Q1': 'No, the cost is always $1.00.', 'Q2': 'There is no limit', 'Q3': 'The better I perform the higher my bonus will be.', 'Q4': 'No, the amount of cash at each node of the web may be different each time.'}",1737,,,,,,,,,,,,,,,,,
,survey-multi-choice,783309,0.0-3.0-3.0,,29054,"{""Q0"":""$-4 to $4"",""Q1"":""$-8 to $8"",""Q2"":""$-48 to $48"",""Q3"":""No, the cost is always $1.00."",""Q4"":""Very motivated""}",,1737,,,,,,,,,,,,,,,,,
,survey-multi-choice,1014621,0.0-1.0-1.0,,26745,"{""Q0"":""$0 to $50"",""Q1"":""No, the cost is always $1.00."",""Q2"":""One time"",""Q3"":""The better I perform the higher my bonus will be."",""Q4"":""No, the amount of cash at each node of the web may be different each time.""}","{'Q0': '$-48 to $48', 'Q1': 'No, the cost is always $1.00.', 'Q2': 'There is no limit', 'Q3': 'The better I perform the higher my bonus will be.', 'Q4': 'No, the amount of cash at each node of the web may be different each time.'}",2368,,,,,,,,,,,,,,,,,
,survey-multi-choice,1187703,0.0-1.1-1.1,,23928,"{""Q0"":""$-48 to $48"",""Q1"":""No, the cost is always $1.00."",""Q2"":""There is no limit"",""Q3"":""The better I perform the higher my bonus will be."",""Q4"":""No, the amount of cash at each node of the web may be different each time.""}","{'Q0': '$-48 to $48', 'Q1': 'No, the cost is always $1.00.', 'Q2': 'There is no limit', 'Q3': 'The better I perform the higher my bonus will be.', 'Q4': 'No, the amount of cash at each node of the web may be different each time.'}",2368,,,,,,,,,,,,,,,,,
,survey-multi-choice,2543234,0.0-3.0-3.0,,195841,"{""Q0"":""$-4 to $4"",""Q1"":""$-8 to $8"",""Q2"":""$-48 to $48"",""Q3"":""No, the cost is always $1.00."",""Q4"":""Very motivated""}",,2368,,,,,,,,,,,,,,,,,
,survey-multi-choice,55662,0.0-1.0-1.0,,20928,"{""Q0"":""$-48 to $48"",""Q1"":""No, the cost is always $1.00."",""Q2"":""Five times"",""Q3"":""The better I perform the higher my bonus will be."",""Q4"":""No, the amount of cash at each node of the web may be different each time.""}","{'Q0': '$-48 to $48', 'Q1': 'No, the cost is always $1.00.', 'Q2': 'There is no limit', 'Q3': 'The better I perform the higher my bonus will be.', 'Q4': 'No, the amount of cash at each node of the web may be different each time.'}",2370,,,,,,,,,,,,,,,,,
,survey-multi-choice,105683,0.0-1.1-1.1,,23960,"{""Q0"":""$-48 to $48"",""Q1"":""No, the cost is always $1.00."",""Q2"":""There is no limit"",""Q3"":""The better I perform the higher my bonus will be."",""Q4"":""No, the amount of cash at each node of the web may be different each time.""}","{'Q0': '$-48 to $48', 'Q1': 'No, the cost is always $1.00.', 'Q2': 'There is no limit', 'Q3': 'The better I perform the higher my bonus will be.', 'Q4': 'No, the amount of cash at each node of the web may be different each time.'}",2370,,,,,,,,,,,,,,,,,
,survey-multi-choice,581063,0.0-3.0-3.0,,25735,"{""Q0"":""$-4 to $4"",""Q1"":""$-8 to $8"",""Q2"":""$-48 to $48"",""Q3"":""No, the cost is always $1.00."",""Q4"":""Slightly motivated""}",,2370,,,,,,,,,,,,,,,,,
,survey-multi-choice,98245,0.0-1.0-1.0,,25756,"{""Q0"":""$-48 to $48"",""Q1"":""No, the cost is always $1.00."",""Q2"":""One time"",""Q3"":""I will receive a $1 bonus if I perform well, otherwise I will receive no bonus."",""Q4"":""No, the amount of cash at each node of the web may be different each time.""}","{'Q0': '$-48 to $48', 'Q1': 'No, the cost is always $1.00.', 'Q2': 'There is no limit', 'Q3': 'The better I perform the higher my bonus will be.', 'Q4': 'No, the amount of cash at each node of the web may be different each time.'}",1754,,,,,,,,,,,,,,,,,
,survey-multi-choice,189252,0.0-1.1-1.1,,25729,"{""Q0"":""$-48 to $48"",""Q1"":""No, the cost is always $1.00."",""Q2"":""There is no limit"",""Q3"":""The better I perform the higher my bonus will be."",""Q4"":""No, the amount of cash at each node of the web may be different each time.""}","{'Q0': '$-48 to $48', 'Q1': 'No, the cost is always $1.00.', 'Q2': 'There is no limit', 'Q3': 'The better I perform the higher my bonus will be.', 'Q4': 'No, the amount of cash at each node of the web may be different each time.'}",1754,,,,,,,,,,,,,,,,,
,survey-multi-choice,763419,0.0-3.0-3.0,,41205,"{""Q0"":""$-4 to $4"",""Q1"":""$-8 to $8"",""Q2"":""$-48 to $48"",""Q3"":""No, the cost is always $1.00."",""Q4"":""Very motivated""}",,1754,,,,,,,,,,,,,,,,,
,survey-multi-choice,90193,0.0-1.0-1.0,,30893,"{""Q0"":""$-48 to $48"",""Q1"":""No, the cost is always $1.00."",""Q2"":""There is no limit"",""Q3"":""The better I perform the higher my bonus will be."",""Q4"":""No, the amount of cash at each node of the web may be different each time.""}","{'Q0': '$-48 to $48', 'Q1': 'No, the cost is always $1.00.', 'Q2': 'There is no limit', 'Q3': 'The better I perform the higher my bonus will be.', 'Q4': 'No, the amount of cash at each node of the web may be different each time.'}",2367,,,,,,,,,,,,,,,,,
,survey-multi-choice,645776,0.0-3.0-3.0,,27292,"{""Q0"":""$-4 to $4"",""Q1"":""$-8 to $8"",""Q2"":""$-48 to $48"",""Q3"":""No, the cost is always $1.00."",""Q4"":""Very motivated""}",,2367,,,,,,,,,,,,,,,,,
,survey-multi-choice,66773,0.0-1.0-1.0,,13180,"{""Q0"":""$-48 to $48"",""Q1"":""No, the cost is always $1.00."",""Q2"":""There is no limit"",""Q3"":""The better I perform the higher my bonus will be."",""Q4"":""No, the amount of cash at each node of the web may be different each time.""}","{'Q0': '$-48 to $48', 'Q1': 'No, the cost is always $1.00.', 'Q2': 'There is no limit', 'Q3': 'The better I perform the higher my bonus will be.', 'Q4': 'No, the amount of cash at each node of the web may be different each time.'}",2374,,,,,,,,,,,,,,,,,
,survey-multi-choice,533804,0.0-3.0-3.0,,22102,"{""Q0"":""$-4 to $4"",""Q1"":""$-8 to $8"",""Q2"":""$-48 to $48"",""Q3"":""No, the cost is always $1.00."",""Q4"":""Very motivated""}",,2374,,,,,,,,,,,,,,,,,
