,success,trial_type,time_elapsed,internal_node_id,view_history,rt,questions,responses,correct,name,reverse_coded,question_id,revealed_states,state_rewards,trial_id,block,trial_index,score,simulation_mode,rewards,path,actions,action_times,queries,displayed_time,trial_time,pid,button_pressed,run,stimulus,browser,platform,language,cond,counterbalance,codeversion,beginhit,beginexp,endhit,bonus,status,mode,DEPTH,COST,MIN_TIME,inspectCost,startTime,bonusRate,variance,branching,first_trial,colors,color_names,final_bonus,displayed_bonus,CODE,time_diff,num_nodes,num_early,num_middle,num_late,num_clicks
30,,mouselab-mdp,2589525.0,0.0-19.0-1.0-0.0,,"[88799, 1394, 823]",,,,,,,[],"['', -4, -8, -48, -48, -2, -8, -48, 48, -2, 4, -24, -24]",5130275037508485152,training,0.0,26.0,"[None, None, None]","[-2, -8, 48]","['5', '6', '8']","['right', 'right', 'down']","[94169, 96083, 97458]","{'click': {'state': {'target': ['5', '1', '9', '6', '7', '3', '2', '4', '11', '10', '12', '8'], 'time': [8043, 11449, 13785, 15844, 17627, 20420, 22232, 24599, 27110, 29272, 30680, 33725]}, 'edge': {'target': [], 'time': []}}, 'mouseover': {'state': {'target': [], 'time': []}, 'edge': {'target': [], 'time': []}}, 'mouseout': {'state': {'target': [], 'time': []}, 'edge': {'target': [], 'time': []}}}",98.0,107590.0,1888,,QuestPilot1,,chrome,windows,UNKNOWN,0,0,irlexp7_2,2020-10-08,2020-10-08,2020-10-08,0.0,5,live,0,1,7,1,2020-10-07,0.002,2_4_24,312,False,"['#1b9e77', '#d95f02', '#7570b3']","['Green', 'Orange', 'Purple']",2.64,,,1.4333333333333333,12,3,3,6,12
31,,mouselab-mdp,2629377.0,0.0-19.0-1.0-1.0,,"[24677, 433, 911]",,,,,,,[],"['', 2, 8, -48, -48, -4, 8, 24, 24, -2, 8, -24, 48]",-3235984444881886702,training,1.0,42.0,"[None, None, None]","[-2, 8, 48]","['9', '10', '12']","['left', 'left', 'down']","[29183, 30243, 31778]","{'click': {'state': {'target': ['1', '2', '3', '4', '5', '6', '8', '7', '12', '10', '11', '9'], 'time': [7151, 9254, 11006, 12683, 14474, 16306, 18054, 19370, 21198, 22374, 23431, 25845]}, 'edge': {'target': [], 'time': []}}, 'mouseover': {'state': {'target': [], 'time': []}, 'edge': {'target': [], 'time': []}}, 'mouseout': {'state': {'target': [], 'time': []}, 'edge': {'target': [], 'time': []}}}",32.34,38527.0,1888,,QuestPilot1,,chrome,windows,UNKNOWN,0,0,irlexp7_2,2020-10-08,2020-10-08,2020-10-08,0.0,5,live,0,1,7,1,2020-10-07,0.002,2_4_24,312,False,"['#1b9e77', '#d95f02', '#7570b3']","['Green', 'Orange', 'Purple']",2.64,,,1.4333333333333333,12,3,3,6,12
32,,mouselab-mdp,2666233.0,0.0-19.0-1.0-2.0,,"[21594, 229, 668]",,,,,,,[],"['', 2, 8, 48, -24, 2, 8, -24, 24, -4, -4, -48, 24]",-2410285785025730749,training,2.0,46.0,"[None, None, None]","[2, 8, 48]","['1', '2', '3']","['up', 'up', 'right']","[29507, 30649, 31878]","{'click': {'state': {'target': ['5', '6', '7', '8', '2', '3', '1', '4', '11', '10', '12', '9'], 'time': [10364, 12033, 13372, 14791, 17690, 18794, 20181, 21233, 22955, 24400, 25198, 26473]}, 'edge': {'target': [], 'time': []}}, 'mouseover': {'state': {'target': [], 'time': []}, 'edge': {'target': [], 'time': []}}, 'mouseout': {'state': {'target': [], 'time': []}, 'edge': {'target': [], 'time': []}}}",32.47,35772.0,1888,,QuestPilot1,,chrome,windows,UNKNOWN,0,0,irlexp7_2,2020-10-08,2020-10-08,2020-10-08,0.0,5,live,0,1,7,1,2020-10-07,0.002,2_4_24,312,False,"['#1b9e77', '#d95f02', '#7570b3']","['Green', 'Orange', 'Purple']",2.64,,,1.4333333333333333,12,3,3,6,12
33,,mouselab-mdp,2705854.0,0.0-19.0-1.0-3.0,,"[21601, 1030, 699]",,,,,,,[],"['', 2, -8, 24, 48, 4, 4, 48, 48, 2, -8, -48, -48]",7007154183592665262,training,3.0,45.0,"[None, None, None]","[4, 4, 48]","['5', '6', '8']","['right', 'right', 'down']","[32062, 33652, 34913]","{'click': {'state': {'target': ['6', '10', '2', '1', '5', '9', '3', '7', '8', '12', '4'], 'time': [12949, 14861, 16349, 17768, 18647, 20258, 21786, 23059, 24540, 26088, 27683]}, 'edge': {'target': [], 'time': []}}, 'mouseover': {'state': {'target': [], 'time': []}, 'edge': {'target': [], 'time': []}}, 'mouseout': {'state': {'target': [], 'time': []}, 'edge': {'target': [], 'time': []}}}",35.53,38498.0,1888,,QuestPilot1,,chrome,windows,UNKNOWN,0,0,irlexp7_2,2020-10-08,2020-10-08,2020-10-08,0.0,5,live,0,1,7,1,2020-10-07,0.002,2_4_24,312,False,"['#1b9e77', '#d95f02', '#7570b3']","['Green', 'Orange', 'Purple']",2.64,,,1.4333333333333333,11,3,3,5,11
34,,mouselab-mdp,2758778.0,0.0-19.0-1.0-4.0,,"[33393, 583, 395]",,,,,,,[],"['', -4, -4, 24, -24, -4, 4, 24, 24, 4, 4, 48, -48]",-7890144164692454837,training,4.0,44.0,"[None, None, None]","[4, 4, 48]","['9', '10', '11']","['left', 'left', 'up']","[45824, 46938, 48190]","{'click': {'state': {'target': ['6', '7', '8', '5', '3', '2', '4', '1', '9', '10', '11', '12'], 'time': [14010, 17510, 20808, 23166, 25256, 26229, 27089, 28247, 29300, 30112, 31005, 32059]}, 'edge': {'target': [], 'time': []}}, 'mouseover': {'state': {'target': [], 'time': []}, 'edge': {'target': [], 'time': []}}, 'mouseout': {'state': {'target': [], 'time': []}, 'edge': {'target': [], 'time': []}}}",48.74,51759.0,1888,,QuestPilot1,,chrome,windows,UNKNOWN,0,0,irlexp7_2,2020-10-08,2020-10-08,2020-10-08,0.0,5,live,0,1,7,1,2020-10-07,0.002,2_4_24,312,False,"['#1b9e77', '#d95f02', '#7570b3']","['Green', 'Orange', 'Purple']",2.64,,,1.4333333333333333,12,3,3,6,12
35,,mouselab-mdp,2805025.0,0.0-19.0-1.0-5.0,,"[22161, 791, 805]",,,,,,,[],"['', -2, -8, -48, 24, -4, -4, -24, -48, 2, -8, 24, 24]",8324563381047186377,training,5.0,6.0,"[None, None, None]","[2, -8, 24]","['9', '10', '11']","['left', 'left', 'up']","[33177, 34517, 35882]","{'click': {'state': {'target': ['6', '10', '11', '1', '7', '8', '5', '9', '12', '2', '3', '4'], 'time': [12702, 14524, 16321, 17986, 18946, 20113, 21508, 24426, 25202, 27191, 28284, 29172]}, 'edge': {'target': [], 'time': []}}, 'mouseover': {'state': {'target': [], 'time': []}, 'edge': {'target': [], 'time': []}}, 'mouseout': {'state': {'target': [], 'time': []}, 'edge': {'target': [], 'time': []}}}",36.47,44875.0,1888,,QuestPilot1,,chrome,windows,UNKNOWN,0,0,irlexp7_2,2020-10-08,2020-10-08,2020-10-08,0.0,5,live,0,1,7,1,2020-10-07,0.002,2_4_24,312,False,"['#1b9e77', '#d95f02', '#7570b3']","['Green', 'Orange', 'Purple']",2.64,,,1.4333333333333333,12,3,3,6,12
36,,mouselab-mdp,2841921.0,0.0-19.0-1.0-6.0,,"[19192, 327, 1059]",,,,,,,[],"['', -4, -4, -24, 24, -2, 4, 24, 24, 2, -8, 48, 48]",-3858448030437113662,training,6.0,30.0,"[None, None, None]","[2, -8, 48]","['9', '10', '11']","['left', 'left', 'up']","[27417, 28551, 30187]","{'click': {'state': {'target': ['6', '10', '9', '1', '5', '7', '8', '2', '3', '4', '11', '12'], 'time': [9929, 12971, 14613, 15779, 16870, 18107, 19137, 20583, 21631, 22399, 24517, 25545]}, 'edge': {'target': [], 'time': []}}, 'mouseover': {'state': {'target': [], 'time': []}, 'edge': {'target': [], 'time': []}}, 'mouseout': {'state': {'target': [], 'time': []}, 'edge': {'target': [], 'time': []}}}",30.74,35819.0,1888,,QuestPilot1,,chrome,windows,UNKNOWN,0,0,irlexp7_2,2020-10-08,2020-10-08,2020-10-08,0.0,5,live,0,1,7,1,2020-10-07,0.002,2_4_24,312,False,"['#1b9e77', '#d95f02', '#7570b3']","['Green', 'Orange', 'Purple']",2.64,,,1.4333333333333333,12,3,3,6,12
37,,mouselab-mdp,2876717.0,0.0-19.0-1.0-7.0,,"[20645, 1719, 704]",,,,,,,[],"['', -4, -4, -24, 24, -4, -8, -48, -48, 2, -4, -24, 24]",-5712514638697657456,training,7.0,10.0,"[None, None, None]","[2, -4, 24]","['9', '10', '12']","['left', 'left', 'down']","[27567, 29627, 30567]","{'click': {'state': {'target': ['6', '10', '2', '7', '8', '11', '12', '1', '9', '5', '3', '4'], 'time': [8643, 9857, 11012, 12803, 13905, 15236, 16314, 17581, 18429, 19351, 20217, 20973]}, 'edge': {'target': [], 'time': []}}, 'mouseover': {'state': {'target': [], 'time': []}, 'edge': {'target': [], 'time': []}}, 'mouseout': {'state': {'target': [], 'time': []}, 'edge': {'target': [], 'time': []}}}",31.24,33705.0,1888,,QuestPilot1,,chrome,windows,UNKNOWN,0,0,irlexp7_2,2020-10-08,2020-10-08,2020-10-08,0.0,5,live,0,1,7,1,2020-10-07,0.002,2_4_24,312,False,"['#1b9e77', '#d95f02', '#7570b3']","['Green', 'Orange', 'Purple']",2.64,,,1.4333333333333333,12,3,3,6,12
38,,mouselab-mdp,2912915.0,0.0-19.0-1.0-8.0,,"[18555, 3405, 2516]",,,,,,,[],"['', -2, 4, 24, -24, 4, -8, 24, -24, 4, -4, 48, -24]",624243419020886250,training,8.0,36.0,"[None, None, None]","[4, -4, 48]","['9', '10', '11']","['left', 'left', 'up']","[21881, 25845, 28929]","{'click': {'state': {'target': ['9', '1', '5', '6', '7', '8', '11', '12', '10', '4', '2', '3'], 'time': [5816, 6718, 7466, 8528, 9613, 10603, 12066, 13266, 14266, 15899, 16726, 17863]}, 'edge': {'target': [], 'time': []}}, 'mouseover': {'state': {'target': [], 'time': []}, 'edge': {'target': [], 'time': []}}, 'mouseout': {'state': {'target': [], 'time': []}, 'edge': {'target': [], 'time': []}}}",29.47,35106.0,1888,,QuestPilot1,,chrome,windows,UNKNOWN,0,0,irlexp7_2,2020-10-08,2020-10-08,2020-10-08,0.0,5,live,0,1,7,1,2020-10-07,0.002,2_4_24,312,False,"['#1b9e77', '#d95f02', '#7570b3']","['Green', 'Orange', 'Purple']",2.64,,,1.4333333333333333,12,3,3,6,12
39,,mouselab-mdp,2934948.0,0.0-19.0-1.0-9.0,,"[7589, 1653, 1015]",,,,,,,[],"['', -2, -4, 48, -48, 4, 8, 48, 24, 2, -4, -48, -24]",-6802951220459882826,training,9.0,55.0,"[None, None, None]","[4, 8, 48]","['5', '6', '7']","['right', 'right', 'up']","[11868, 14088, 15698]","{'click': {'state': {'target': ['1', '5', '6', '7', '8'], 'time': [6023, 6896, 7917, 8552, 9712]}, 'edge': {'target': [], 'time': []}}, 'mouseover': {'state': {'target': [], 'time': []}, 'edge': {'target': [], 'time': []}}, 'mouseout': {'state': {'target': [], 'time': []}, 'edge': {'target': [], 'time': []}}}",16.25,20821.0,1888,,QuestPilot1,,chrome,windows,UNKNOWN,0,0,irlexp7_2,2020-10-08,2020-10-08,2020-10-08,0.0,5,live,0,1,7,1,2020-10-07,0.002,2_4_24,312,False,"['#1b9e77', '#d95f02', '#7570b3']","['Green', 'Orange', 'Purple']",2.64,,,1.4333333333333333,5,2,1,2,5
40,,mouselab-mdp,2968179.0,0.0-19.0-1.0-10.0,,"[20861, 1729, 963]",,,,,,,[],"['', 4, -8, 48, 24, -2, -4, 24, -24, 4, -4, 48, 48]",-8930756420240891119,training,10.0,36.0,"[None, None, None]","[4, -4, 48]","['9', '10', '11']","['left', 'left', 'up']","[25200, 27526, 29038]","{'click': {'state': {'target': ['11', '7', '10', '12', '9', '5', '6', '8', '1', '2', '4', '3'], 'time': [6232, 7637, 9604, 11538, 13566, 15800, 16301, 17003, 18323, 19139, 20801, 21797]}, 'edge': {'target': [], 'time': []}}, 'mouseover': {'state': {'target': [], 'time': []}, 'edge': {'target': [], 'time': []}}, 'mouseout': {'state': {'target': [], 'time': []}, 'edge': {'target': [], 'time': []}}}",29.7,32156.0,1888,,QuestPilot1,,chrome,windows,UNKNOWN,0,0,irlexp7_2,2020-10-08,2020-10-08,2020-10-08,0.0,5,live,0,1,7,1,2020-10-07,0.002,2_4_24,312,False,"['#1b9e77', '#d95f02', '#7570b3']","['Green', 'Orange', 'Purple']",2.64,,,1.4333333333333333,12,3,3,6,12
41,,mouselab-mdp,2995918.0,0.0-19.0-1.0-11.0,,"[17228, 839, 785]",,,,,,,[],"['', -4, -4, 48, -48, -2, -8, 48, 48, -4, -4, -48, 48]",7160689332333860190,training,11.0,26.0,"[None, None, None]","[-2, -8, 48]","['5', '6', '7']","['right', 'right', 'up']","[21012, 22425, 23768]","{'click': {'state': {'target': ['9', '10', '11', '12', '7', '6', '8', '5', '1', '3', '2', '4'], 'time': [6890, 8522, 9126, 10504, 11621, 12574, 13378, 14366, 15253, 16220, 16992, 18012]}, 'edge': {'target': [], 'time': []}}, 'mouseover': {'state': {'target': [], 'time': []}, 'edge': {'target': [], 'time': []}}, 'mouseout': {'state': {'target': [], 'time': []}, 'edge': {'target': [], 'time': []}}}",24.29,26678.0,1888,,QuestPilot1,,chrome,windows,UNKNOWN,0,0,irlexp7_2,2020-10-08,2020-10-08,2020-10-08,0.0,5,live,0,1,7,1,2020-10-07,0.002,2_4_24,312,False,"['#1b9e77', '#d95f02', '#7570b3']","['Green', 'Orange', 'Purple']",2.64,,,1.4333333333333333,12,3,3,6,12
42,,mouselab-mdp,3023828.0,0.0-19.0-1.0-12.0,,"[16376, 819, 660]",,,,,,,[],"['', -4, 8, 24, 24, -2, -8, -48, -24, -4, -8, 24, 24]",5782292848891634944,training,12.0,16.0,"[None, None, None]","[-4, 8, 24]","['1', '2', '3']","['up', 'up', 'right']","[18819, 20192, 21415]","{'click': {'state': {'target': ['5', '6', '7', '8', '1', '3', '2', '4', '11', '10', '12', '9'], 'time': [4374, 5163, 6168, 6818, 8169, 9020, 9747, 11165, 12617, 13297, 14171, 15474]}, 'edge': {'target': [], 'time': []}}, 'mouseover': {'state': {'target': [], 'time': []}, 'edge': {'target': [], 'time': []}}, 'mouseout': {'state': {'target': [], 'time': []}, 'edge': {'target': [], 'time': []}}}",22.0,26794.0,1888,,QuestPilot1,,chrome,windows,UNKNOWN,0,0,irlexp7_2,2020-10-08,2020-10-08,2020-10-08,0.0,5,live,0,1,7,1,2020-10-07,0.002,2_4_24,312,False,"['#1b9e77', '#d95f02', '#7570b3']","['Green', 'Orange', 'Purple']",2.64,,,1.4333333333333333,12,3,3,6,12
43,,mouselab-mdp,3050018.0,0.0-19.0-1.0-13.0,,"[15398, 1621, 791]",,,,,,,[],"['', -2, 4, 24, 24, 4, 8, -48, 24, -2, 8, -48, -24]",-9084254621569370087,training,13.0,15.0,"[None, None, None]","[-2, 4, 24]","['1', '2', '3']","['up', 'up', 'right']","[18385, 20548, 21933]","{'click': {'state': {'target': ['10', '9', '11', '12', '7', '6', '8', '1', '3', '2', '4'], 'time': [6085, 7161, 8158, 8889, 10764, 11504, 12283, 13410, 14243, 15050, 15992]}, 'edge': {'target': [], 'time': []}}, 'mouseover': {'state': {'target': [], 'time': []}, 'edge': {'target': [], 'time': []}}, 'mouseout': {'state': {'target': [], 'time': []}, 'edge': {'target': [], 'time': []}}}",22.49,25098.0,1888,,QuestPilot1,,chrome,windows,UNKNOWN,0,0,irlexp7_2,2020-10-08,2020-10-08,2020-10-08,0.0,5,live,0,1,7,1,2020-10-07,0.002,2_4_24,312,False,"['#1b9e77', '#d95f02', '#7570b3']","['Green', 'Orange', 'Purple']",2.64,,,1.4333333333333333,11,2,3,6,11
44,,mouselab-mdp,3078354.0,0.0-19.0-1.0-14.0,,"[14422, 6019, 652]",,,,,,,[],"['', -2, 4, 48, -48, 4, -8, 48, 24, -2, -8, 24, 48]",-4507891731722671583,training,14.0,32.0,"[None, None, None]","[4, -8, 48]","['5', '6', '7']","['right', 'right', 'up']","[16114, 22745, 23959]","{'click': {'state': {'target': ['1', '7', '6', '8', '5', '10', '11', '12', '9', '4', '2', '3'], 'time': [2824, 3716, 3998, 4818, 5619, 6367, 7082, 7684, 8742, 12061, 12738, 13335]}, 'edge': {'target': [], 'time': []}}, 'mouseover': {'state': {'target': [], 'time': []}, 'edge': {'target': [], 'time': []}}, 'mouseout': {'state': {'target': [], 'time': []}, 'edge': {'target': [], 'time': []}}}",24.52,27030.0,1888,,QuestPilot1,,chrome,windows,UNKNOWN,0,0,irlexp7_2,2020-10-08,2020-10-08,2020-10-08,0.0,5,live,0,1,7,1,2020-10-07,0.002,2_4_24,312,False,"['#1b9e77', '#d95f02', '#7570b3']","['Green', 'Orange', 'Purple']",2.64,,,1.4333333333333333,12,3,3,6,12
45,,mouselab-mdp,3100730.0,0.0-19.0-1.0-15.0,,"[11792, 2354, 616]",,,,,,,[],"['', 2, -4, -48, -24, -2, -4, 48, -24, 4, 4, 48, -24]",7520829653297501648,training,15.0,44.0,"[None, None, None]","[4, 4, 48]","['9', '10', '11']","['left', 'left', 'up']","[13669, 16586, 17753]","{'click': {'state': {'target': ['1', '7', '6', '8', '5', '3', '2', '4', '11', '10', '12', '9'], 'time': [3056, 3844, 4542, 5318, 6461, 7587, 8296, 8863, 9596, 10355, 11376, 12262]}, 'edge': {'target': [], 'time': []}}, 'mouseover': {'state': {'target': [], 'time': []}, 'edge': {'target': [], 'time': []}}, 'mouseout': {'state': {'target': [], 'time': []}, 'edge': {'target': [], 'time': []}}}",18.41,21300.0,1888,,QuestPilot1,,chrome,windows,UNKNOWN,0,0,irlexp7_2,2020-10-08,2020-10-08,2020-10-08,0.0,5,live,0,1,7,1,2020-10-07,0.002,2_4_24,312,False,"['#1b9e77', '#d95f02', '#7570b3']","['Green', 'Orange', 'Purple']",2.64,,,1.4333333333333333,12,3,3,6,12
46,,mouselab-mdp,3114858.0,0.0-19.0-1.0-16.0,,"[6107, 40, 829]",,,,,,,[],"['', -2, 8, 24, 48, 2, -4, 48, -48, 2, 8, 24, -48]",4460497769895528113,training,16.0,50.0,"[None, None, None]","[-2, 8, 48]","['1', '2', '4']","['up', 'up', 'left']","[7891, 8443, 9837]","{'click': {'state': {'target': ['2', '3', '4', '1'], 'time': [3149, 3494, 4304, 5593]}, 'edge': {'target': [], 'time': []}}, 'mouseover': {'state': {'target': [], 'time': []}, 'edge': {'target': [], 'time': []}}, 'mouseout': {'state': {'target': [], 'time': []}, 'edge': {'target': [], 'time': []}}}",10.4,13038.0,1888,,QuestPilot1,,chrome,windows,UNKNOWN,0,0,irlexp7_2,2020-10-08,2020-10-08,2020-10-08,0.0,5,live,0,1,7,1,2020-10-07,0.002,2_4_24,312,False,"['#1b9e77', '#d95f02', '#7570b3']","['Green', 'Orange', 'Purple']",2.64,,,1.4333333333333333,4,1,1,2,4
47,,mouselab-mdp,3152725.0,0.0-19.0-1.0-17.0,,"[27750, 2231, 880]",,,,,,,[],"['', -2, -4, 48, -24, 4, -8, 48, -48, 2, -8, 24, -48]",-8867212192286323683,training,17.0,30.0,"[None, None, None]","[-2, -4, 48]","['1', '2', '3']","['up', 'up', 'right']","[29173, 32193, 33682]","{'click': {'state': {'target': ['2', '6', '7', '8', '5', '10', '11', '12', '9', '3', '4', '1'], 'time': [2599, 3707, 4498, 5514, 7054, 8061, 8870, 9675, 10718, 11530, 12363, 13218]}, 'edge': {'target': [], 'time': []}}, 'mouseover': {'state': {'target': [], 'time': []}, 'edge': {'target': [], 'time': []}}, 'mouseout': {'state': {'target': [], 'time': []}, 'edge': {'target': [], 'time': []}}}",34.26,36769.0,1888,,QuestPilot1,,chrome,windows,UNKNOWN,0,0,irlexp7_2,2020-10-08,2020-10-08,2020-10-08,0.0,5,live,0,1,7,1,2020-10-07,0.002,2_4_24,312,False,"['#1b9e77', '#d95f02', '#7570b3']","['Green', 'Orange', 'Purple']",2.64,,,1.4333333333333333,12,3,3,6,12
48,,mouselab-mdp,3173072.0,0.0-19.0-1.0-18.0,,"[11664, 1369, 690]",,,,,,,[],"['', 2, 4, 24, 48, 2, -4, -24, -48, -2, -8, 48, -48]",-7082365920985033127,training,18.0,46.0,"[None, None, None]","[2, 4, 48]","['1', '2', '4']","['up', 'up', 'left']","[13246, 15137, 16366]","{'click': {'state': {'target': ['1', '7', '6', '8', '5', '2', '4', '3'], 'time': [2740, 3986, 4719, 5527, 7087, 8227, 8964, 9693]}, 'edge': {'target': [], 'time': []}}, 'mouseover': {'state': {'target': [], 'time': []}, 'edge': {'target': [], 'time': []}}, 'mouseout': {'state': {'target': [], 'time': []}, 'edge': {'target': [], 'time': []}}}",16.84,19280.0,1888,,QuestPilot1,,chrome,windows,UNKNOWN,0,0,irlexp7_2,2020-10-08,2020-10-08,2020-10-08,0.0,5,live,0,1,7,1,2020-10-07,0.002,2_4_24,312,False,"['#1b9e77', '#d95f02', '#7570b3']","['Green', 'Orange', 'Purple']",2.64,,,1.4333333333333333,8,2,2,4,8
49,,mouselab-mdp,3201407.0,0.0-19.0-1.0-19.0,,"[15012, 2334, 934]",,,,,,,[],"['', -2, 4, -24, 24, -4, 8, -24, -48, -4, -8, 24, 24]",3023589674777612464,training,19.0,0.0,"[None, None, None]","[-4, -8, 24]","['9', '10', '11']","['left', 'left', 'up']","[16697, 19706, 21253]","{'click': {'state': {'target': ['4', '2', '3', '1', '5', '9', '11', '10', '12', '7', '6', '8'], 'time': [3193, 3885, 4574, 5547, 6561, 7332, 8046, 8614, 9294, 11350, 11747, 12508]}, 'edge': {'target': [], 'time': []}}, 'mouseover': {'state': {'target': [], 'time': []}, 'edge': {'target': [], 'time': []}}, 'mouseout': {'state': {'target': [], 'time': []}, 'edge': {'target': [], 'time': []}}}",21.8,27046.0,1888,,QuestPilot1,,chrome,windows,UNKNOWN,0,0,irlexp7_2,2020-10-08,2020-10-08,2020-10-08,0.0,5,live,0,1,7,1,2020-10-07,0.002,2_4_24,312,False,"['#1b9e77', '#d95f02', '#7570b3']","['Green', 'Orange', 'Purple']",2.64,,,1.4333333333333333,12,3,3,6,12
50,,mouselab-mdp,3223333.0,0.0-19.0-1.0-20.0,,"[13469, 754, 1031]",,,,,,,[],"['', -2, 8, 24, 48, -2, -8, 48, 48, 2, 4, 24, 48]",1013767336841409156,test,20.0,30.0,"[None, None, None]","[-2, -8, 48]","['5', '6', '7']","['right', 'right', 'up']","[15237, 16504, 18330]","{'click': {'state': {'target': ['5', '6', '7', '8', '1', '3', '2', '4'], 'time': [3671, 4465, 5122, 5862, 7360, 8430, 9008, 9692]}, 'edge': {'target': [], 'time': []}}, 'mouseover': {'state': {'target': [], 'time': []}, 'edge': {'target': [], 'time': []}}, 'mouseout': {'state': {'target': [], 'time': []}, 'edge': {'target': [], 'time': []}}}",18.87,20858.0,1888,,QuestPilot1,,chrome,windows,UNKNOWN,0,0,irlexp7_2,2020-10-08,2020-10-08,2020-10-08,0.0,5,live,0,1,7,1,2020-10-07,0.002,2_4_24,312,False,"['#1b9e77', '#d95f02', '#7570b3']","['Green', 'Orange', 'Purple']",2.64,,,1.4333333333333333,8,2,2,4,8
51,,mouselab-mdp,3246277.0,0.0-19.0-1.0-21.0,,"[10155, 1850, 824]",,,,,,,[],"['', 2, 4, -24, 48, 2, -8, -24, 48, 4, 4, 24, 24]",-1661671392891629296,test,21.0,25.0,"[None, None, None]","[4, 4, 24]","['9', '10', '11']","['left', 'left', 'up']","[14483, 16896, 18303]","{'click': {'state': {'target': ['2', '3', '4', '11', '10', '12', '9'], 'time': [6750, 7143, 7917, 9088, 9649, 10275, 11015]}, 'edge': {'target': [], 'time': []}}, 'mouseover': {'state': {'target': [], 'time': []}, 'edge': {'target': [], 'time': []}}, 'mouseout': {'state': {'target': [], 'time': []}, 'edge': {'target': [], 'time': []}}}",18.86,21882.0,1888,,QuestPilot1,,chrome,windows,UNKNOWN,0,0,irlexp7_2,2020-10-08,2020-10-08,2020-10-08,0.0,5,live,0,1,7,1,2020-10-07,0.002,2_4_24,312,False,"['#1b9e77', '#d95f02', '#7570b3']","['Green', 'Orange', 'Purple']",2.64,,,1.4333333333333333,7,1,2,4,7
52,,mouselab-mdp,3274726.0,0.0-19.0-1.0-22.0,,"[16814, 2557, 1158]",,,,,,,[],"['', 4, 8, 48, 48, -4, -8, -48, 24, 4, 8, 24, 24]",-5736556951088810154,test,22.0,48.0,"[None, None, None]","[4, 8, 48]","['1', '2', '3']","['up', 'up', 'right']","[18819, 21958, 23678]","{'click': {'state': {'target': ['1', '3', '2', '4', '9', '10', '11', '12', '5', '7', '6', '8'], 'time': [3485, 4382, 5176, 6192, 7953, 10375, 10873, 11675, 12695, 13690, 14391, 15198]}, 'edge': {'target': [], 'time': []}}, 'mouseover': {'state': {'target': [], 'time': []}, 'edge': {'target': [], 'time': []}}, 'mouseout': {'state': {'target': [], 'time': []}, 'edge': {'target': [], 'time': []}}}",24.47,27386.0,1888,,QuestPilot1,,chrome,windows,UNKNOWN,0,0,irlexp7_2,2020-10-08,2020-10-08,2020-10-08,0.0,5,live,0,1,7,1,2020-10-07,0.002,2_4_24,312,False,"['#1b9e77', '#d95f02', '#7570b3']","['Green', 'Orange', 'Purple']",2.64,,,1.4333333333333333,12,3,3,6,12
53,,mouselab-mdp,3302773.0,0.0-19.0-1.0-23.0,,"[16517, 1986, 509]",,,,,,,[],"['', 4, 8, 24, 48, -4, -8, -24, -24, 4, -4, 24, 48]",-6519267732573937633,test,23.0,48.0,"[None, None, None]","[4, 8, 48]","['1', '2', '4']","['up', 'up', 'left']","[20094, 22799, 23880]","{'click': {'state': {'target': ['2', '10', '3', '4', '5', '6', '7', '8', '1', '11', '12', '9'], 'time': [5056, 6190, 7550, 8607, 9894, 10688, 11113, 13415, 14862, 16494, 17305, 18250]}, 'edge': {'target': [], 'time': []}}, 'mouseover': {'state': {'target': [], 'time': []}, 'edge': {'target': [], 'time': []}}, 'mouseout': {'state': {'target': [], 'time': []}, 'edge': {'target': [], 'time': []}}}",24.43,26915.0,1888,,QuestPilot1,,chrome,windows,UNKNOWN,0,0,irlexp7_2,2020-10-08,2020-10-08,2020-10-08,0.0,5,live,0,1,7,1,2020-10-07,0.002,2_4_24,312,False,"['#1b9e77', '#d95f02', '#7570b3']","['Green', 'Orange', 'Purple']",2.64,,,1.4333333333333333,12,3,3,6,12
54,,mouselab-mdp,3325508.0,0.0-19.0-1.0-24.0,,"[14092, 1122, 726]",,,,,,,[],"['', -4, -8, -48, -48, 4, 4, 24, 48, -4, -4, 24, 48]",7072607725447389718,test,24.0,45.0,"[None, None, None]","[4, 4, 48]","['5', '6', '8']","['right', 'right', 'down']","[15525, 17537, 18900]","{'click': {'state': {'target': ['4', '2', '3', '6', '7', '8', '5', '12', '10', '11', '9'], 'time': [3001, 3826, 4450, 5576, 5959, 6974, 7760, 8970, 9372, 10208, 11181]}, 'edge': {'target': [], 'time': []}}, 'mouseover': {'state': {'target': [], 'time': []}, 'edge': {'target': [], 'time': []}}, 'mouseout': {'state': {'target': [], 'time': []}, 'edge': {'target': [], 'time': []}}}",19.49,21661.0,1888,,QuestPilot1,,chrome,windows,UNKNOWN,0,0,irlexp7_2,2020-10-08,2020-10-08,2020-10-08,0.0,5,live,0,1,7,1,2020-10-07,0.002,2_4_24,312,False,"['#1b9e77', '#d95f02', '#7570b3']","['Green', 'Orange', 'Purple']",2.64,,,1.4333333333333333,11,2,3,6,11
55,,mouselab-mdp,3347828.0,0.0-19.0-1.0-25.0,,"[13145, 1355, 524]",,,,,,,[],"['', -2, 8, 48, 24, -2, 4, -48, 48, 4, -8, -48, -48]",-7383638292178567401,test,25.0,42.0,"[None, None, None]","[-2, 8, 48]","['1', '2', '3']","['up', 'up', 'right']","[15088, 17010, 18081]","{'click': {'state': {'target': ['2', '3', '4', '1', '9', '10', '11', '12', '5', '7', '6', '8'], 'time': [3348, 3887, 4748, 5801, 7349, 7783, 8834, 9470, 10548, 11292, 11747, 12275]}, 'edge': {'target': [], 'time': []}}, 'mouseover': {'state': {'target': [], 'time': []}, 'edge': {'target': [], 'time': []}}, 'mouseout': {'state': {'target': [], 'time': []}, 'edge': {'target': [], 'time': []}}}",18.65,21257.0,1888,,QuestPilot1,,chrome,windows,UNKNOWN,0,0,irlexp7_2,2020-10-08,2020-10-08,2020-10-08,0.0,5,live,0,1,7,1,2020-10-07,0.002,2_4_24,312,False,"['#1b9e77', '#d95f02', '#7570b3']","['Green', 'Orange', 'Purple']",2.64,,,1.4333333333333333,12,3,3,6,12
56,,mouselab-mdp,3372268.0,0.0-19.0-1.0-26.0,,"[14519, 678, 632]",,,,,,,[],"['', -2, 4, -48, -24, -4, -8, -48, -24, -2, 4, -24, 24]",4506983446382794552,test,26.0,14.0,"[None, None, None]","[-2, 4, 24]","['9', '10', '12']","['left', 'left', 'down']","[18919, 20149, 21354]","{'click': {'state': {'target': ['5', '6', '7', '8', '1', '2', '4', '3', '11', '10', '12', '9'], 'time': [6138, 7085, 7917, 8895, 10226, 11159, 11827, 12645, 13781, 14463, 15210, 16061]}, 'edge': {'target': [], 'time': []}}, 'mouseover': {'state': {'target': [], 'time': []}, 'edge': {'target': [], 'time': []}}, 'mouseout': {'state': {'target': [], 'time': []}, 'edge': {'target': [], 'time': []}}}",21.9,23358.0,1888,,QuestPilot1,,chrome,windows,UNKNOWN,0,0,irlexp7_2,2020-10-08,2020-10-08,2020-10-08,0.0,5,live,0,1,7,1,2020-10-07,0.002,2_4_24,312,False,"['#1b9e77', '#d95f02', '#7570b3']","['Green', 'Orange', 'Purple']",2.64,,,1.4333333333333333,12,3,3,6,12
57,,mouselab-mdp,3398571.0,0.0-19.0-1.0-27.0,,"[15299, 2677, 823]",,,,,,,[],"['', -2, 8, 24, 48, 2, 4, -24, 24, 4, 8, 48, 24]",2790125680448452122,test,27.0,48.0,"[None, None, None]","[4, 8, 48]","['9', '10', '11']","['left', 'left', 'up']","[18576, 21816, 23180]","{'click': {'state': {'target': ['9', '10', '11', '12', '1', '2', '4', '3', '5', '6', '7', '8'], 'time': [5086, 6233, 7061, 8256, 10645, 11477, 12090, 12810, 14141, 14711, 15416, 16168]}, 'edge': {'target': [], 'time': []}}, 'mouseover': {'state': {'target': [], 'time': []}, 'edge': {'target': [], 'time': []}}, 'mouseout': {'state': {'target': [], 'time': []}, 'edge': {'target': [], 'time': []}}}",23.73,25238.0,1888,,QuestPilot1,,chrome,windows,UNKNOWN,0,0,irlexp7_2,2020-10-08,2020-10-08,2020-10-08,0.0,5,live,0,1,7,1,2020-10-07,0.002,2_4_24,312,False,"['#1b9e77', '#d95f02', '#7570b3']","['Green', 'Orange', 'Purple']",2.64,,,1.4333333333333333,12,3,3,6,12
58,,mouselab-mdp,3424448.0,0.0-19.0-1.0-28.0,,"[16044, 1468, 671]",,,,,,,[],"['', 4, 8, 24, 48, -4, 8, -48, -48, -2, -8, 24, -48]",-2596340847510945257,test,28.0,48.0,"[None, None, None]","[4, 8, 48]","['1', '2', '4']","['up', 'up', 'left']","[19327, 21366, 22592]","{'click': {'state': {'target': ['1', '4', '2', '3', '7', '6', '8', '5', '10', '9', '11', '12'], 'time': [4452, 6358, 7171, 8066, 9236, 9944, 11054, 11782, 13016, 13681, 14443, 17181]}, 'edge': {'target': [], 'time': []}}, 'mouseover': {'state': {'target': [], 'time': []}, 'edge': {'target': [], 'time': []}}, 'mouseout': {'state': {'target': [], 'time': []}, 'edge': {'target': [], 'time': []}}}",23.14,24807.0,1888,,QuestPilot1,,chrome,windows,UNKNOWN,0,0,irlexp7_2,2020-10-08,2020-10-08,2020-10-08,0.0,5,live,0,1,7,1,2020-10-07,0.002,2_4_24,312,False,"['#1b9e77', '#d95f02', '#7570b3']","['Green', 'Orange', 'Purple']",2.64,,,1.4333333333333333,12,3,3,6,12
59,,mouselab-mdp,3449008.0,0.0-19.0-1.0-29.0,,"[15497, 1840, 663]",,,,,,,[],"['', -4, -4, -48, 24, 4, 4, 48, -24, 4, -4, 48, 24]",1518845473617230857,test,29.0,36.0,"[None, None, None]","[4, -4, 48]","['9', '10', '11']","['left', 'left', 'up']","[17662, 20045, 21270]","{'click': {'state': {'target': ['10', '9', '11', '12', '5', '6', '7', '8', '1', '2', '4', '3'], 'time': [4356, 5207, 7014, 7935, 9578, 10306, 10995, 12036, 13068, 13733, 14380, 15139]}, 'edge': {'target': [], 'time': []}}, 'mouseover': {'state': {'target': [], 'time': []}, 'edge': {'target': [], 'time': []}}, 'mouseout': {'state': {'target': [], 'time': []}, 'edge': {'target': [], 'time': []}}}",21.83,23490.0,1888,,QuestPilot1,,chrome,windows,UNKNOWN,0,0,irlexp7_2,2020-10-08,2020-10-08,2020-10-08,0.0,5,live,0,1,7,1,2020-10-07,0.002,2_4_24,312,False,"['#1b9e77', '#d95f02', '#7570b3']","['Green', 'Orange', 'Purple']",2.64,,,1.4333333333333333,12,3,3,6,12
60,,mouselab-mdp,2681795.0,0.0-19.0-1.0-0.0,,"[4571, 165, 863]",,,,,,,[],"['', 2, -8, -24, 48, 4, 4, -48, 24, 2, -4, -24, 24]",1466645676459689082,training,0.0,42.0,"[None, None, None]","[2, -8, 48]","['1', '2', '4']","['up', 'up', 'left']","[10517, 11203, 12579]","{'click': {'state': {'target': [], 'time': []}, 'edge': {'target': [], 'time': []}}, 'mouseover': {'state': {'target': [], 'time': []}, 'edge': {'target': [], 'time': []}}, 'mouseout': {'state': {'target': [], 'time': []}, 'edge': {'target': [], 'time': []}}}",14.95,31324.0,1890,,QuestPilot1,,chrome,windows,UNKNOWN,0,0,irlexp7_2,2020-10-08,2020-10-08,2020-10-08,0.0,5,live,0,1,7,1,2020-10-07,0.002,2_4_24,312,True,"['#1b9e77', '#d95f02', '#7570b3']","['Green', 'Orange', 'Purple']",2.16,,,55.11666666666667,0,0,0,0,0
61,,mouselab-mdp,2696682.0,0.0-19.0-1.0-1.0,,"[1811, 742, 647]",,,,,,,[],"['', -2, 8, 24, 48, 2, 4, -24, 24, 4, 8, 48, 24]",2790125680448452122,training,1.0,-18.0,"[None, None, None]","[2, 4, -24]","['5', '6', '7']","['right', 'right', 'up']","[5090, 6354, 7506]","{'click': {'state': {'target': [], 'time': []}, 'edge': {'target': [], 'time': []}}, 'mouseover': {'state': {'target': [], 'time': []}, 'edge': {'target': [], 'time': []}}, 'mouseout': {'state': {'target': [], 'time': []}, 'edge': {'target': [], 'time': []}}}",11.28,13809.0,1890,,QuestPilot1,,chrome,windows,UNKNOWN,0,0,irlexp7_2,2020-10-08,2020-10-08,2020-10-08,0.0,5,live,0,1,7,1,2020-10-07,0.002,2_4_24,312,True,"['#1b9e77', '#d95f02', '#7570b3']","['Green', 'Orange', 'Purple']",2.16,,,55.11666666666667,0,0,0,0,0
62,,mouselab-mdp,2710873.0,0.0-19.0-1.0-2.0,,"[2269, 436, 495]",,,,,,,[],"['', 4, 4, -48, 24, -2, 4, 48, -24, 4, 4, -48, 48]",3911103627878725878,training,2.0,-22.0,"[None, None, None]","[-2, 4, -24]","['5', '6', '8']","['right', 'right', 'down']","[6402, 7354, 8370]","{'click': {'state': {'target': [], 'time': []}, 'edge': {'target': [], 'time': []}}, 'mouseover': {'state': {'target': [], 'time': []}, 'edge': {'target': [], 'time': []}}, 'mouseout': {'state': {'target': [], 'time': []}, 'edge': {'target': [], 'time': []}}}",11.13,13122.0,1890,,QuestPilot1,,chrome,windows,UNKNOWN,0,0,irlexp7_2,2020-10-08,2020-10-08,2020-10-08,0.0,5,live,0,1,7,1,2020-10-07,0.002,2_4_24,312,True,"['#1b9e77', '#d95f02', '#7570b3']","['Green', 'Orange', 'Purple']",2.16,,,55.11666666666667,0,0,0,0,0
63,,mouselab-mdp,2720376.0,0.0-19.0-1.0-3.0,,"[1208, 442, 531]",,,,,,,[],"['', 2, 4, -48, 24, -4, 8, 24, -48, 4, -8, 48, 24]",8563081952235477328,training,3.0,-42.0,"[None, None, None]","[2, 4, -48]","['1', '2', '3']","['up', 'up', 'right']","[2327, 3278, 4318]","{'click': {'state': {'target': [], 'time': []}, 'edge': {'target': [], 'time': []}}, 'mouseover': {'state': {'target': [], 'time': []}, 'edge': {'target': [], 'time': []}}, 'mouseout': {'state': {'target': [], 'time': []}, 'edge': {'target': [], 'time': []}}}",8.12,8421.0,1890,,QuestPilot1,,chrome,windows,UNKNOWN,0,0,irlexp7_2,2020-10-08,2020-10-08,2020-10-08,0.0,5,live,0,1,7,1,2020-10-07,0.002,2_4_24,312,True,"['#1b9e77', '#d95f02', '#7570b3']","['Green', 'Orange', 'Purple']",2.16,,,55.11666666666667,0,0,0,0,0
64,,mouselab-mdp,2730985.0,0.0-19.0-1.0-4.0,,"[1498, 159, 331]",,,,,,,[],"['', 2, 4, 24, 24, -4, -8, 24, 48, -4, -4, -24, -24]",779405771340628543,training,4.0,30.0,"[None, None, None]","[2, 4, 24]","['1', '2', '4']","['up', 'up', 'left']","[2415, 3088, 3927]","{'click': {'state': {'target': [], 'time': []}, 'edge': {'target': [], 'time': []}}, 'mouseover': {'state': {'target': [], 'time': []}, 'edge': {'target': [], 'time': []}}, 'mouseout': {'state': {'target': [], 'time': []}, 'edge': {'target': [], 'time': []}}}",8.92,9527.0,1890,,QuestPilot1,,chrome,windows,UNKNOWN,0,0,irlexp7_2,2020-10-08,2020-10-08,2020-10-08,0.0,5,live,0,1,7,1,2020-10-07,0.002,2_4_24,312,True,"['#1b9e77', '#d95f02', '#7570b3']","['Green', 'Orange', 'Purple']",2.16,,,55.11666666666667,0,0,0,0,0
65,,mouselab-mdp,2748233.0,0.0-19.0-1.0-5.0,,"[10576, 353, 319]",,,,,,,[],"['', 4, 8, 24, 48, -4, 8, -48, -48, -2, -8, 24, -48]",-2596340847510945257,training,5.0,13.0,"[None, None, None]","[-2, -8, 24]","['9', '10', '11']","['left', 'left', 'up']","[13024, 13887, 14719]","{'click': {'state': {'target': ['12'], 'time': [3318]}, 'edge': {'target': [], 'time': []}}, 'mouseover': {'state': {'target': [], 'time': []}, 'edge': {'target': [], 'time': []}}, 'mouseout': {'state': {'target': [], 'time': []}, 'edge': {'target': [], 'time': []}}}",15.23,16182.0,1890,,QuestPilot1,,chrome,windows,UNKNOWN,0,0,irlexp7_2,2020-10-08,2020-10-08,2020-10-08,0.0,5,live,0,1,7,1,2020-10-07,0.002,2_4_24,312,True,"['#1b9e77', '#d95f02', '#7570b3']","['Green', 'Orange', 'Purple']",2.16,,,55.11666666666667,1,0,0,1,1
66,,mouselab-mdp,2759089.0,0.0-19.0-1.0-6.0,,"[4474, 338, 265]",,,,,,,[],"['', -2, 8, -24, -24, -2, 4, -48, 24, -4, -8, 48, -48]",5441343193922839396,training,6.0,25.0,"[None, None, None]","[-2, 4, 24]","['5', '6', '8']","['right', 'right', 'down']","[6031, 6885, 7662]","{'click': {'state': {'target': ['8'], 'time': [3533]}, 'edge': {'target': [], 'time': []}}, 'mouseover': {'state': {'target': [], 'time': []}, 'edge': {'target': [], 'time': []}}, 'mouseout': {'state': {'target': [], 'time': []}, 'edge': {'target': [], 'time': []}}}",8.56,9805.0,1890,,QuestPilot1,,chrome,windows,UNKNOWN,0,0,irlexp7_2,2020-10-08,2020-10-08,2020-10-08,0.0,5,live,0,1,7,1,2020-10-07,0.002,2_4_24,312,True,"['#1b9e77', '#d95f02', '#7570b3']","['Green', 'Orange', 'Purple']",2.16,,,55.11666666666667,1,0,0,1,1
67,,mouselab-mdp,2771352.0,0.0-19.0-1.0-7.0,,"[3760, 182, 231]",,,,,,,[],"['', -2, 8, 48, 24, -2, 4, -48, 48, 4, -8, -48, -48]",-7383638292178567401,training,7.0,29.0,"[None, None, None]","[-2, 8, 24]","['1', '2', '4']","['up', 'up', 'left']","[5248, 5943, 6686]","{'click': {'state': {'target': ['4'], 'time': [2843]}, 'edge': {'target': [], 'time': []}}, 'mouseover': {'state': {'target': [], 'time': []}, 'edge': {'target': [], 'time': []}}, 'mouseout': {'state': {'target': [], 'time': []}, 'edge': {'target': [], 'time': []}}}",9.49,11198.0,1890,,QuestPilot1,,chrome,windows,UNKNOWN,0,0,irlexp7_2,2020-10-08,2020-10-08,2020-10-08,0.0,5,live,0,1,7,1,2020-10-07,0.002,2_4_24,312,True,"['#1b9e77', '#d95f02', '#7570b3']","['Green', 'Orange', 'Purple']",2.16,,,55.11666666666667,1,0,0,1,1
68,,mouselab-mdp,2783360.0,0.0-19.0-1.0-8.0,,"[3044, 249, 507]",,,,,,,[],"['', 2, -4, -48, 24, 2, 4, -48, 48, -4, 4, 48, -48]",5297217084176217776,training,8.0,53.0,"[None, None, None]","[2, 4, 48]","['5', '6', '8']","['right', 'right', 'down']","[4244, 5002, 6027]","{'click': {'state': {'target': ['7'], 'time': [2758]}, 'edge': {'target': [], 'time': []}}, 'mouseover': {'state': {'target': [], 'time': []}, 'edge': {'target': [], 'time': []}}, 'mouseout': {'state': {'target': [], 'time': []}, 'edge': {'target': [], 'time': []}}}",10.2,10938.0,1890,,QuestPilot1,,chrome,windows,UNKNOWN,0,0,irlexp7_2,2020-10-08,2020-10-08,2020-10-08,0.0,5,live,0,1,7,1,2020-10-07,0.002,2_4_24,312,True,"['#1b9e77', '#d95f02', '#7570b3']","['Green', 'Orange', 'Purple']",2.16,,,55.11666666666667,1,0,0,1,1
69,,mouselab-mdp,2795368.0,0.0-19.0-1.0-9.0,,"[3195, 294, 232]",,,,,,,[],"['', -4, 8, 24, 24, -2, -8, -48, -24, -4, -8, 24, 24]",5782292848891634944,training,9.0,27.0,"[None, None, None]","[-4, 8, 24]","['1', '2', '3']","['up', 'up', 'right']","[4430, 5235, 5980]","{'click': {'state': {'target': ['3'], 'time': [1949]}, 'edge': {'target': [], 'time': []}}, 'mouseover': {'state': {'target': [], 'time': []}, 'edge': {'target': [], 'time': []}}, 'mouseout': {'state': {'target': [], 'time': []}, 'edge': {'target': [], 'time': []}}}",10.24,10939.0,1890,,QuestPilot1,,chrome,windows,UNKNOWN,0,0,irlexp7_2,2020-10-08,2020-10-08,2020-10-08,0.0,5,live,0,1,7,1,2020-10-07,0.002,2_4_24,312,True,"['#1b9e77', '#d95f02', '#7570b3']","['Green', 'Orange', 'Purple']",2.16,,,55.11666666666667,1,0,0,1,1
70,,mouselab-mdp,2806969.0,0.0-19.0-1.0-10.0,,"[6455, 136, 124]",,,,,,,[],"['', -2, 8, -24, 24, 2, -8, -48, -24, 4, -4, 48, -48]",-6373051720525898386,training,10.0,46.0,"[None, None, None]","[4, -4, 48]","['9', '10', '11']","['left', 'left', 'up']","[7675, 8330, 8969]","{'click': {'state': {'target': ['4', '11'], 'time': [2131, 6331]}, 'edge': {'target': [], 'time': []}}, 'mouseover': {'state': {'target': [], 'time': []}, 'edge': {'target': [], 'time': []}}, 'mouseout': {'state': {'target': [], 'time': []}, 'edge': {'target': [], 'time': []}}}",9.48,10530.0,1890,,QuestPilot1,,chrome,windows,UNKNOWN,0,0,irlexp7_2,2020-10-08,2020-10-08,2020-10-08,0.0,5,live,0,1,7,1,2020-10-07,0.002,2_4_24,312,True,"['#1b9e77', '#d95f02', '#7570b3']","['Green', 'Orange', 'Purple']",2.16,,,55.11666666666667,2,0,0,2,2
71,,mouselab-mdp,2819256.0,0.0-19.0-1.0-11.0,,"[4354, 93, 214]",,,,,,,[],"['', -4, -4, -24, 24, -2, 4, 24, 24, 2, -8, 48, 48]",-3858448030437113662,training,11.0,40.0,"[None, None, None]","[2, -8, 48]","['9', '10', '12']","['left', 'left', 'down']","[5542, 6149, 6886]","{'click': {'state': {'target': ['7', '12'], 'time': [2294, 4127]}, 'edge': {'target': [], 'time': []}}, 'mouseover': {'state': {'target': [], 'time': []}, 'edge': {'target': [], 'time': []}}, 'mouseout': {'state': {'target': [], 'time': []}, 'edge': {'target': [], 'time': []}}}",10.19,11213.0,1890,,QuestPilot1,,chrome,windows,UNKNOWN,0,0,irlexp7_2,2020-10-08,2020-10-08,2020-10-08,0.0,5,live,0,1,7,1,2020-10-07,0.002,2_4_24,312,True,"['#1b9e77', '#d95f02', '#7570b3']","['Green', 'Orange', 'Purple']",2.16,,,55.11666666666667,2,0,0,2,2
72,,mouselab-mdp,2830081.0,0.0-19.0-1.0-12.0,,"[3121, 142, 109]",,,,,,,[],"['', -4, 4, 48, 48, -4, -4, 24, 48, -4, -8, -48, -24]",101062465419474540,training,12.0,47.0,"[None, None, None]","[-4, 4, 48]","['1', '2', '4']","['up', 'up', 'left']","[3943, 4606, 5222]","{'click': {'state': {'target': ['4'], 'time': [2775]}, 'edge': {'target': [], 'time': []}}, 'mouseover': {'state': {'target': [], 'time': []}, 'edge': {'target': [], 'time': []}}, 'mouseout': {'state': {'target': [], 'time': []}, 'edge': {'target': [], 'time': []}}}",8.82,9765.0,1890,,QuestPilot1,,chrome,windows,UNKNOWN,0,0,irlexp7_2,2020-10-08,2020-10-08,2020-10-08,0.0,5,live,0,1,7,1,2020-10-07,0.002,2_4_24,312,True,"['#1b9e77', '#d95f02', '#7570b3']","['Green', 'Orange', 'Purple']",2.16,,,55.11666666666667,1,0,0,1,1
73,,mouselab-mdp,2841953.0,0.0-19.0-1.0-13.0,,"[4394, 16, 112]",,,,,,,[],"['', -4, -4, 24, -24, -4, 4, 24, 24, 4, 4, 48, -48]",-7890144164692454837,training,13.0,54.0,"[None, None, None]","[4, 4, 48]","['9', '10', '11']","['left', 'left', 'up']","[5473, 6008, 6632]","{'click': {'state': {'target': ['7', '11'], 'time': [2303, 4256]}, 'edge': {'target': [], 'time': []}}, 'mouseover': {'state': {'target': [], 'time': []}, 'edge': {'target': [], 'time': []}}, 'mouseout': {'state': {'target': [], 'time': []}, 'edge': {'target': [], 'time': []}}}",10.08,10816.0,1890,,QuestPilot1,,chrome,windows,UNKNOWN,0,0,irlexp7_2,2020-10-08,2020-10-08,2020-10-08,0.0,5,live,0,1,7,1,2020-10-07,0.002,2_4_24,312,True,"['#1b9e77', '#d95f02', '#7570b3']","['Green', 'Orange', 'Purple']",2.16,,,55.11666666666667,2,0,0,2,2
74,,mouselab-mdp,2855689.0,0.0-19.0-1.0-14.0,,"[7948, 27, 15]",,,,,,,[],"['', -2, 8, 48, 24, 4, 8, 48, 48, -4, 4, 24, 24]",806716957540588652,training,14.0,53.0,"[None, None, None]","[-2, 8, 48]","['1', '2', '3']","['up', 'up', 'right']","[9888, 10424, 10975]","{'click': {'state': {'target': ['3'], 'time': [8550]}, 'edge': {'target': [], 'time': []}}, 'mouseover': {'state': {'target': [], 'time': []}, 'edge': {'target': [], 'time': []}}, 'mouseout': {'state': {'target': [], 'time': []}, 'edge': {'target': [], 'time': []}}}",11.49,12663.0,1890,,QuestPilot1,,chrome,windows,UNKNOWN,0,0,irlexp7_2,2020-10-08,2020-10-08,2020-10-08,0.0,5,live,0,1,7,1,2020-10-07,0.002,2_4_24,312,True,"['#1b9e77', '#d95f02', '#7570b3']","['Green', 'Orange', 'Purple']",2.16,,,55.11666666666667,1,0,0,1,1
75,,mouselab-mdp,2867081.0,0.0-19.0-1.0-15.0,,"[3447, 69, 216]",,,,,,,[],"['', 2, 4, -24, 48, 2, -4, 24, 24, 2, -4, -48, -24]",7341350411386814818,training,15.0,-27.0,"[None, None, None]","[2, -4, -24]","['9', '10', '12']","['left', 'left', 'down']","[4786, 5362, 6089]","{'click': {'state': {'target': ['11'], 'time': [2851]}, 'edge': {'target': [], 'time': []}}, 'mouseover': {'state': {'target': [], 'time': []}, 'edge': {'target': [], 'time': []}}, 'mouseout': {'state': {'target': [], 'time': []}, 'edge': {'target': [], 'time': []}}}",9.34,10337.0,1890,,QuestPilot1,,chrome,windows,UNKNOWN,0,0,irlexp7_2,2020-10-08,2020-10-08,2020-10-08,0.0,5,live,0,1,7,1,2020-10-07,0.002,2_4_24,312,True,"['#1b9e77', '#d95f02', '#7570b3']","['Green', 'Orange', 'Purple']",2.16,,,55.11666666666667,1,0,0,1,1
76,,mouselab-mdp,2879978.0,0.0-19.0-1.0-16.0,,"[8017, 73, 67]",,,,,,,[],"['', -4, 8, 48, -24, -2, 8, -24, -48, 4, 8, -24, 48]",-3254006420049746783,training,16.0,-20.0,"[None, None, None]","[-2, 8, -24]","['5', '6', '7']","['right', 'right', 'up']","[8986, 9569, 10145]","{'click': {'state': {'target': ['8', '4'], 'time': [1734, 3905]}, 'edge': {'target': [], 'time': []}}, 'mouseover': {'state': {'target': [], 'time': []}, 'edge': {'target': [], 'time': []}}, 'mouseout': {'state': {'target': [], 'time': []}, 'edge': {'target': [], 'time': []}}}",10.66,11826.0,1890,,QuestPilot1,,chrome,windows,UNKNOWN,0,0,irlexp7_2,2020-10-08,2020-10-08,2020-10-08,0.0,5,live,0,1,7,1,2020-10-07,0.002,2_4_24,312,True,"['#1b9e77', '#d95f02', '#7570b3']","['Green', 'Orange', 'Purple']",2.16,,,55.11666666666667,2,0,0,2,2
77,,mouselab-mdp,2890720.0,0.0-19.0-1.0-17.0,,"[4028, 13, 40]",,,,,,,[],"['', -4, 8, 48, -48, -4, -4, -48, 48, -2, 8, 24, 48]",-4689310195682358749,training,17.0,51.0,"[None, None, None]","[-4, 8, 48]","['1', '2', '3']","['up', 'up', 'right']","[4856, 5383, 5942]","{'click': {'state': {'target': ['3'], 'time': [3734]}, 'edge': {'target': [], 'time': []}}, 'mouseover': {'state': {'target': [], 'time': []}, 'edge': {'target': [], 'time': []}}, 'mouseout': {'state': {'target': [], 'time': []}, 'edge': {'target': [], 'time': []}}}",8.83,9678.0,1890,,QuestPilot1,,chrome,windows,UNKNOWN,0,0,irlexp7_2,2020-10-08,2020-10-08,2020-10-08,0.0,5,live,0,1,7,1,2020-10-07,0.002,2_4_24,312,True,"['#1b9e77', '#d95f02', '#7570b3']","['Green', 'Orange', 'Purple']",2.16,,,55.11666666666667,1,0,0,1,1
78,,mouselab-mdp,2902768.0,0.0-19.0-1.0-18.0,,"[4998, 126, 122]",,,,,,,[],"['', -2, -8, 24, 24, 2, -4, 24, -48, -2, -4, -24, -48]",7037128295931229090,training,18.0,20.0,"[None, None, None]","[2, -4, 24]","['5', '6', '7']","['right', 'right', 'up']","[6003, 6635, 7267]","{'click': {'state': {'target': ['11', '7'], 'time': [2083, 3659]}, 'edge': {'target': [], 'time': []}}, 'mouseover': {'state': {'target': [], 'time': []}, 'edge': {'target': [], 'time': []}}, 'mouseout': {'state': {'target': [], 'time': []}, 'edge': {'target': [], 'time': []}}}",10.01,10986.0,1890,,QuestPilot1,,chrome,windows,UNKNOWN,0,0,irlexp7_2,2020-10-08,2020-10-08,2020-10-08,0.0,5,live,0,1,7,1,2020-10-07,0.002,2_4_24,312,True,"['#1b9e77', '#d95f02', '#7570b3']","['Green', 'Orange', 'Purple']",2.16,,,55.11666666666667,2,0,0,2,2
79,,mouselab-mdp,2913609.0,0.0-19.0-1.0-19.0,,"[4343, 443, 292]",,,,,,,[],"['', -2, 4, 24, -48, 4, 8, 48, -24, 2, -4, 24, 48]",2911385690292515296,training,19.0,24.0,"[None, None, None]","[-2, 4, 24]","['1', '2', '3']","['up', 'up', 'right']","[6084, 7035, 7835]","{'click': {'state': {'target': ['4', '3'], 'time': [2881, 4245]}, 'edge': {'target': [], 'time': []}}, 'mouseover': {'state': {'target': [], 'time': []}, 'edge': {'target': [], 'time': []}}, 'mouseout': {'state': {'target': [], 'time': []}, 'edge': {'target': [], 'time': []}}}",8.74,9779.0,1890,,QuestPilot1,,chrome,windows,UNKNOWN,0,0,irlexp7_2,2020-10-08,2020-10-08,2020-10-08,0.0,5,live,0,1,7,1,2020-10-07,0.002,2_4_24,312,True,"['#1b9e77', '#d95f02', '#7570b3']","['Green', 'Orange', 'Purple']",2.16,,,55.11666666666667,2,0,0,2,2
80,,mouselab-mdp,2925321.0,0.0-19.0-1.0-20.0,,"[3717, 20, 160]",,,,,,,[],"['', -2, 4, 48, -48, 4, -8, 48, 24, -2, -8, 24, 48]",-4507891731722671583,test,20.0,42.0,"[None, None, None]","[4, -8, 48]","['5', '6', '7']","['right', 'right', 'up']","[4665, 5192, 5863]","{'click': {'state': {'target': ['8', '7'], 'time': [1712, 3472]}, 'edge': {'target': [], 'time': []}}, 'mouseover': {'state': {'target': [], 'time': []}, 'edge': {'target': [], 'time': []}}, 'mouseout': {'state': {'target': [], 'time': []}, 'edge': {'target': [], 'time': []}}}",9.95,10655.0,1890,,QuestPilot1,,chrome,windows,UNKNOWN,0,0,irlexp7_2,2020-10-08,2020-10-08,2020-10-08,0.0,5,live,0,1,7,1,2020-10-07,0.002,2_4_24,312,True,"['#1b9e77', '#d95f02', '#7570b3']","['Green', 'Orange', 'Purple']",2.16,,,55.11666666666667,2,0,0,2,2
81,,mouselab-mdp,2938016.0,0.0-19.0-1.0-21.0,,"[5687, 3, 1092]",,,,,,,[],"['', -4, -8, 48, -48, -2, -8, 48, 24, -2, 8, 24, -24]",6221411054408101109,test,21.0,28.0,"[None, None, None]","[-2, 8, 24]","['9', '10', '11']","['left', 'left', 'up']","[7106, 7625, 9249]","{'click': {'state': {'target': ['11', '8'], 'time': [2939, 4494]}, 'edge': {'target': [], 'time': []}}, 'mouseover': {'state': {'target': [], 'time': []}, 'edge': {'target': [], 'time': []}}, 'mouseout': {'state': {'target': [], 'time': []}, 'edge': {'target': [], 'time': []}}}",10.42,11624.0,1890,,QuestPilot1,,chrome,windows,UNKNOWN,0,0,irlexp7_2,2020-10-08,2020-10-08,2020-10-08,0.0,5,live,0,1,7,1,2020-10-07,0.002,2_4_24,312,True,"['#1b9e77', '#d95f02', '#7570b3']","['Green', 'Orange', 'Purple']",2.16,,,55.11666666666667,2,0,0,2,2
82,,mouselab-mdp,2948120.0,0.0-19.0-1.0-22.0,,"[3472, 85, 747]",,,,,,,[],"['', -2, -8, -48, -24, 2, -8, -48, 48, -2, 4, -48, -48]",-974285796851491632,test,22.0,40.0,"[None, None, None]","[2, -8, 48]","['5', '6', '8']","['right', 'right', 'down']","[4602, 5202, 6467]","{'click': {'state': {'target': ['7', '8'], 'time': [2179, 3145]}, 'edge': {'target': [], 'time': []}}, 'mouseover': {'state': {'target': [], 'time': []}, 'edge': {'target': [], 'time': []}}, 'mouseout': {'state': {'target': [], 'time': []}, 'edge': {'target': [], 'time': []}}}",8.13,9042.0,1890,,QuestPilot1,,chrome,windows,UNKNOWN,0,0,irlexp7_2,2020-10-08,2020-10-08,2020-10-08,0.0,5,live,0,1,7,1,2020-10-07,0.002,2_4_24,312,True,"['#1b9e77', '#d95f02', '#7570b3']","['Green', 'Orange', 'Purple']",2.16,,,55.11666666666667,2,0,0,2,2
83,,mouselab-mdp,2959081.0,0.0-19.0-1.0-23.0,,"[3377, 20, 14]",,,,,,,[],"['', 2, -4, -48, 48, -4, -8, -24, -24, -4, 4, -48, 24]",-6157917720371000130,test,23.0,44.0,"[None, None, None]","[2, -4, 48]","['1', '2', '4']","['up', 'up', 'left']","[4758, 5285, 5814]","{'click': {'state': {'target': ['3', '4'], 'time': [2359, 3479]}, 'edge': {'target': [], 'time': []}}, 'mouseover': {'state': {'target': [], 'time': []}, 'edge': {'target': [], 'time': []}}, 'mouseout': {'state': {'target': [], 'time': []}, 'edge': {'target': [], 'time': []}}}",9.38,9885.0,1890,,QuestPilot1,,chrome,windows,UNKNOWN,0,0,irlexp7_2,2020-10-08,2020-10-08,2020-10-08,0.0,5,live,0,1,7,1,2020-10-07,0.002,2_4_24,312,True,"['#1b9e77', '#d95f02', '#7570b3']","['Green', 'Orange', 'Purple']",2.16,,,55.11666666666667,2,0,0,2,2
84,,mouselab-mdp,2971089.0,0.0-19.0-1.0-24.0,,"[3283, 86, 423]",,,,,,,[],"['', 4, 8, -24, 24, 4, -4, -24, 24, -4, 4, -24, 48]",2948336531417193034,test,24.0,22.0,"[None, None, None]","[4, -4, 24]","['5', '6', '8']","['right', 'right', 'down']","[4597, 5197, 6133]","{'click': {'state': {'target': ['7', '8'], 'time': [2728, 3399]}, 'edge': {'target': [], 'time': []}}, 'mouseover': {'state': {'target': [], 'time': []}, 'edge': {'target': [], 'time': []}}, 'mouseout': {'state': {'target': [], 'time': []}, 'edge': {'target': [], 'time': []}}}",10.32,10957.0,1890,,QuestPilot1,,chrome,windows,UNKNOWN,0,0,irlexp7_2,2020-10-08,2020-10-08,2020-10-08,0.0,5,live,0,1,7,1,2020-10-07,0.002,2_4_24,312,True,"['#1b9e77', '#d95f02', '#7570b3']","['Green', 'Orange', 'Purple']",2.16,,,55.11666666666667,2,0,0,2,2
85,,mouselab-mdp,2983865.0,0.0-19.0-1.0-25.0,,"[2885, 541, 404]",,,,,,,[],"['', 4, -4, 24, 24, 4, 4, 48, -48, 4, -8, -24, 48]",8695590532405198654,test,25.0,42.0,"[None, None, None]","[4, -8, 48]","['9', '10', '12']","['left', 'left', 'down']","[3892, 4949, 5861]","{'click': {'state': {'target': ['11', '12'], 'time': [1789, 2588]}, 'edge': {'target': [], 'time': []}}, 'mouseover': {'state': {'target': [], 'time': []}, 'edge': {'target': [], 'time': []}}, 'mouseout': {'state': {'target': [], 'time': []}, 'edge': {'target': [], 'time': []}}}",11.01,11700.0,1890,,QuestPilot1,,chrome,windows,UNKNOWN,0,0,irlexp7_2,2020-10-08,2020-10-08,2020-10-08,0.0,5,live,0,1,7,1,2020-10-07,0.002,2_4_24,312,True,"['#1b9e77', '#d95f02', '#7570b3']","['Green', 'Orange', 'Purple']",2.16,,,55.11666666666667,2,0,0,2,2
86,,mouselab-mdp,2997184.0,0.0-19.0-1.0-26.0,,"[6476, 593, 338]",,,,,,,[],"['', -2, 4, -24, -24, -4, -8, 48, -24, 4, -8, -24, 24]",-51234349377613834,test,26.0,32.0,"[None, None, None]","[-4, -8, 48]","['5', '6', '7']","['right', 'right', 'up']","[7329, 8440, 9289]","{'click': {'state': {'target': ['4', '3', '8', '7'], 'time': [1575, 2316, 3782, 6263]}, 'edge': {'target': [], 'time': []}}, 'mouseover': {'state': {'target': [], 'time': []}, 'edge': {'target': [], 'time': []}}, 'mouseout': {'state': {'target': [], 'time': []}, 'edge': {'target': [], 'time': []}}}",9.79,12248.0,1890,,QuestPilot1,,chrome,windows,UNKNOWN,0,0,irlexp7_2,2020-10-08,2020-10-08,2020-10-08,0.0,5,live,0,1,7,1,2020-10-07,0.002,2_4_24,312,True,"['#1b9e77', '#d95f02', '#7570b3']","['Green', 'Orange', 'Purple']",2.16,,,55.11666666666667,4,0,0,4,4
87,,mouselab-mdp,3009304.0,0.0-19.0-1.0-27.0,,"[2758, 310, 246]",,,,,,,[],"['', -4, 8, -48, 48, 2, -4, 48, -48, 2, -8, 24, -48]",5258592950055133126,test,27.0,51.0,"[None, None, None]","[-4, 8, 48]","['1', '2', '4']","['up', 'up', 'left']","[3765, 4588, 5348]","{'click': {'state': {'target': ['4'], 'time': [2450]}, 'edge': {'target': [], 'time': []}}, 'mouseover': {'state': {'target': [], 'time': []}, 'edge': {'target': [], 'time': []}}, 'mouseout': {'state': {'target': [], 'time': []}, 'edge': {'target': [], 'time': []}}}",10.01,11051.0,1890,,QuestPilot1,,chrome,windows,UNKNOWN,0,0,irlexp7_2,2020-10-08,2020-10-08,2020-10-08,0.0,5,live,0,1,7,1,2020-10-07,0.002,2_4_24,312,True,"['#1b9e77', '#d95f02', '#7570b3']","['Green', 'Orange', 'Purple']",2.16,,,55.11666666666667,1,0,0,1,1
88,,mouselab-mdp,3021672.0,0.0-19.0-1.0-28.0,,"[4690, 298, 1105]",,,,,,,[],"['', 4, 4, 48, 24, 4, 8, -24, -48, 2, -4, -48, 24]",-4315514392980277613,test,28.0,20.0,"[None, None, None]","[2, -4, 24]","['9', '10', '12']","['left', 'left', 'down']","[6214, 7030, 8654]","{'click': {'state': {'target': ['11', '12'], 'time': [3805, 4964]}, 'edge': {'target': [], 'time': []}}, 'mouseover': {'state': {'target': [], 'time': []}, 'edge': {'target': [], 'time': []}}, 'mouseout': {'state': {'target': [], 'time': []}, 'edge': {'target': [], 'time': []}}}",10.53,11293.0,1890,,QuestPilot1,,chrome,windows,UNKNOWN,0,0,irlexp7_2,2020-10-08,2020-10-08,2020-10-08,0.0,5,live,0,1,7,1,2020-10-07,0.002,2_4_24,312,True,"['#1b9e77', '#d95f02', '#7570b3']","['Green', 'Orange', 'Purple']",2.16,,,55.11666666666667,2,0,0,2,2
89,,mouselab-mdp,3035328.0,0.0-19.0-1.0-29.0,,"[3881, 204, 277]",,,,,,,[],"['', -2, -8, 48, 24, 4, 4, 48, 24, 2, -8, -24, -48]",-6480731593057875222,test,29.0,36.0,"[None, None, None]","[-2, -8, 48]","['1', '2', '3']","['up', 'up', 'right']","[6104, 6824, 7616]","{'click': {'state': {'target': ['4', '3'], 'time': [3625, 4774]}, 'edge': {'target': [], 'time': []}}, 'mouseover': {'state': {'target': [], 'time': []}, 'edge': {'target': [], 'time': []}}, 'mouseout': {'state': {'target': [], 'time': []}, 'edge': {'target': [], 'time': []}}}",11.22,12592.0,1890,,QuestPilot1,,chrome,windows,UNKNOWN,0,0,irlexp7_2,2020-10-08,2020-10-08,2020-10-08,0.0,5,live,0,1,7,1,2020-10-07,0.002,2_4_24,312,True,"['#1b9e77', '#d95f02', '#7570b3']","['Green', 'Orange', 'Purple']",2.16,,,55.11666666666667,2,0,0,2,2
90,,mouselab-mdp,2827011.0,0.0-19.0-1.0-0.0,,"[5595, 1696, 1375]",,,,,,,[],"['', -2, 8, -24, 48, 2, 4, -48, 48, -2, 4, -24, -48]",-6593666887814381482,training,0.0,54.0,"[None, None, None]","[2, 4, 48]","['5', '6', '8']","['right', 'right', 'down']","[15646, 17869, 19762]","{'click': {'state': {'target': [], 'time': []}, 'edge': {'target': [], 'time': []}}, 'mouseover': {'state': {'target': [], 'time': []}, 'edge': {'target': [], 'time': []}}, 'mouseout': {'state': {'target': [], 'time': []}, 'edge': {'target': [], 'time': []}}}",20.29,24895.0,1891,,QuestPilot1,,chrome,windows,UNKNOWN,0,0,irlexp7_2,2020-10-07,2020-10-07,2020-10-07,0.0,5,live,0,1,7,1,2020-10-07,0.002,2_4_24,312,False,"['#1b9e77', '#d95f02', '#7570b3']","['Green', 'Orange', 'Purple']",1.37,,,57.81666666666667,0,0,0,0,0
91,,mouselab-mdp,2852320.0,0.0-19.0-1.0-1.0,,"[5422, 2453, 7119]",,,,,,,[],"['', 2, -4, 48, -48, 2, -8, 24, -24, -4, -8, 24, -24]",-8977351099475698878,training,1.0,-36.0,"[None, None, None]","[-4, -8, -24]","['9', '10', '12']","['left', 'left', 'down']","[9552, 12537, 20204]","{'click': {'state': {'target': [], 'time': []}, 'edge': {'target': [], 'time': []}}, 'mouseover': {'state': {'target': [], 'time': []}, 'edge': {'target': [], 'time': []}}, 'mouseout': {'state': {'target': [], 'time': []}, 'edge': {'target': [], 'time': []}}}",20.74,24208.0,1891,,QuestPilot1,,chrome,windows,UNKNOWN,0,0,irlexp7_2,2020-10-07,2020-10-07,2020-10-07,0.0,5,live,0,1,7,1,2020-10-07,0.002,2_4_24,312,False,"['#1b9e77', '#d95f02', '#7570b3']","['Green', 'Orange', 'Purple']",1.37,,,57.81666666666667,0,0,0,0,0
92,,mouselab-mdp,2868941.0,0.0-19.0-1.0-2.0,,"[1616, 2742, 1236]",,,,,,,[],"['', -2, 8, 24, 48, -2, -8, 48, 48, 2, 4, 24, 48]",1013767336841409156,training,2.0,38.0,"[None, None, None]","[-2, -8, 48]","['5', '6', '7']","['right', 'right', 'up']","[5281, 8561, 10337]","{'click': {'state': {'target': [], 'time': []}, 'edge': {'target': [], 'time': []}}, 'mouseover': {'state': {'target': [], 'time': []}, 'edge': {'target': [], 'time': []}}, 'mouseout': {'state': {'target': [], 'time': []}, 'edge': {'target': [], 'time': []}}}",13.67,15536.0,1891,,QuestPilot1,,chrome,windows,UNKNOWN,0,0,irlexp7_2,2020-10-07,2020-10-07,2020-10-07,0.0,5,live,0,1,7,1,2020-10-07,0.002,2_4_24,312,False,"['#1b9e77', '#d95f02', '#7570b3']","['Green', 'Orange', 'Purple']",1.37,,,57.81666666666667,0,0,0,0,0
93,,mouselab-mdp,2888407.0,0.0-19.0-1.0-3.0,,"[1641, 1079, 1928]",,,,,,,[],"['', -2, 8, 24, 48, 2, 4, -24, 24, 4, 8, 48, 24]",2790125680448452122,training,3.0,30.0,"[None, None, None]","[-2, 8, 24]","['1', '2', '3']","['up', 'up', 'right']","[5433, 7055, 9532]","{'click': {'state': {'target': [], 'time': []}, 'edge': {'target': [], 'time': []}}, 'mouseover': {'state': {'target': [], 'time': []}, 'edge': {'target': [], 'time': []}}, 'mouseout': {'state': {'target': [], 'time': []}, 'edge': {'target': [], 'time': []}}}",12.79,18348.0,1891,,QuestPilot1,,chrome,windows,UNKNOWN,0,0,irlexp7_2,2020-10-07,2020-10-07,2020-10-07,0.0,5,live,0,1,7,1,2020-10-07,0.002,2_4_24,312,False,"['#1b9e77', '#d95f02', '#7570b3']","['Green', 'Orange', 'Purple']",1.37,,,57.81666666666667,0,0,0,0,0
94,,mouselab-mdp,2904068.0,0.0-19.0-1.0-4.0,,"[2544, 2020, 1952]",,,,,,,[],"['', 2, 4, -24, 48, 2, -4, 24, 24, 2, -4, -48, -24]",7341350411386814818,training,4.0,22.0,"[None, None, None]","[2, -4, 24]","['5', '6', '8']","['right', 'right', 'down']","[5596, 8155, 10651]","{'click': {'state': {'target': [], 'time': []}, 'edge': {'target': [], 'time': []}}, 'mouseover': {'state': {'target': [], 'time': []}, 'edge': {'target': [], 'time': []}}, 'mouseout': {'state': {'target': [], 'time': []}, 'edge': {'target': [], 'time': []}}}",12.05,14544.0,1891,,QuestPilot1,,chrome,windows,UNKNOWN,0,0,irlexp7_2,2020-10-07,2020-10-07,2020-10-07,0.0,5,live,0,1,7,1,2020-10-07,0.002,2_4_24,312,False,"['#1b9e77', '#d95f02', '#7570b3']","['Green', 'Orange', 'Purple']",1.37,,,57.81666666666667,0,0,0,0,0
95,,mouselab-mdp,2918484.0,0.0-19.0-1.0-5.0,,"[1284, 696, 758]",,,,,,,[],"['', 4, 8, -48, -48, -4, 8, -48, -24, 4, 4, 24, -24]",5673770806327288351,training,5.0,-36.0,"[None, None, None]","[4, 8, -48]","['1', '2', '4']","['up', 'up', 'left']","[3602, 4828, 6107]","{'click': {'state': {'target': [], 'time': []}, 'edge': {'target': [], 'time': []}}, 'mouseover': {'state': {'target': [], 'time': []}, 'edge': {'target': [], 'time': []}}, 'mouseout': {'state': {'target': [], 'time': []}, 'edge': {'target': [], 'time': []}}}",11.32,13328.0,1891,,QuestPilot1,,chrome,windows,UNKNOWN,0,0,irlexp7_2,2020-10-07,2020-10-07,2020-10-07,0.0,5,live,0,1,7,1,2020-10-07,0.002,2_4_24,312,False,"['#1b9e77', '#d95f02', '#7570b3']","['Green', 'Orange', 'Purple']",1.37,,,57.81666666666667,0,0,0,0,0
96,,mouselab-mdp,2931800.0,0.0-19.0-1.0-6.0,,"[2111, 752, 2526]",,,,,,,[],"['', 2, 4, -24, 48, -2, -8, 48, 24, 4, 8, -48, -48]",-2597539031851427286,training,6.0,54.0,"[None, None, None]","[2, 4, 48]","['1', '2', '4']","['up', 'up', 'left']","[4124, 5443, 8515]","{'click': {'state': {'target': [], 'time': []}, 'edge': {'target': [], 'time': []}}, 'mouseover': {'state': {'target': [], 'time': []}, 'edge': {'target': [], 'time': []}}, 'mouseout': {'state': {'target': [], 'time': []}, 'edge': {'target': [], 'time': []}}}",10.01,12244.0,1891,,QuestPilot1,,chrome,windows,UNKNOWN,0,0,irlexp7_2,2020-10-07,2020-10-07,2020-10-07,0.0,5,live,0,1,7,1,2020-10-07,0.002,2_4_24,312,False,"['#1b9e77', '#d95f02', '#7570b3']","['Green', 'Orange', 'Purple']",1.37,,,57.81666666666667,0,0,0,0,0
97,,mouselab-mdp,2944860.0,0.0-19.0-1.0-7.0,,"[1319, 834, 1046]",,,,,,,[],"['', 4, -4, 24, -24, -2, -4, -24, -24, 2, -4, 48, 24]",1598574912455297978,training,7.0,46.0,"[None, None, None]","[2, -4, 48]","['9', '10', '11']","['left', 'left', 'up']","[3877, 5257, 6846]","{'click': {'state': {'target': [], 'time': []}, 'edge': {'target': [], 'time': []}}, 'mouseover': {'state': {'target': [], 'time': []}, 'edge': {'target': [], 'time': []}}, 'mouseout': {'state': {'target': [], 'time': []}, 'edge': {'target': [], 'time': []}}}",10.56,11968.0,1891,,QuestPilot1,,chrome,windows,UNKNOWN,0,0,irlexp7_2,2020-10-07,2020-10-07,2020-10-07,0.0,5,live,0,1,7,1,2020-10-07,0.002,2_4_24,312,False,"['#1b9e77', '#d95f02', '#7570b3']","['Green', 'Orange', 'Purple']",1.37,,,57.81666666666667,0,0,0,0,0
98,,mouselab-mdp,2957762.0,0.0-19.0-1.0-8.0,,"[1715, 734, 733]",,,,,,,[],"['', 2, 4, -48, 24, -4, 8, 24, -48, 4, -8, 48, 24]",8563081952235477328,training,8.0,20.0,"[None, None, None]","[4, -8, 24]","['9', '10', '12']","['left', 'left', 'down']","[2831, 4109, 5359]","{'click': {'state': {'target': [], 'time': []}, 'edge': {'target': [], 'time': []}}, 'mouseover': {'state': {'target': [], 'time': []}, 'edge': {'target': [], 'time': []}}, 'mouseout': {'state': {'target': [], 'time': []}, 'edge': {'target': [], 'time': []}}}",10.12,11823.0,1891,,QuestPilot1,,chrome,windows,UNKNOWN,0,0,irlexp7_2,2020-10-07,2020-10-07,2020-10-07,0.0,5,live,0,1,7,1,2020-10-07,0.002,2_4_24,312,False,"['#1b9e77', '#d95f02', '#7570b3']","['Green', 'Orange', 'Purple']",1.37,,,57.81666666666667,0,0,0,0,0
99,,mouselab-mdp,2971365.0,0.0-19.0-1.0-9.0,,"[1357, 815, 1772]",,,,,,,[],"['', -4, 8, -24, -48, 4, -4, 48, 24, 4, 4, 48, -24]",7112299922459130764,training,9.0,48.0,"[None, None, None]","[4, -4, 48]","['5', '6', '7']","['right', 'right', 'up']","[2617, 3950, 6253]","{'click': {'state': {'target': [], 'time': []}, 'edge': {'target': [], 'time': []}}, 'mouseover': {'state': {'target': [], 'time': []}, 'edge': {'target': [], 'time': []}}, 'mouseout': {'state': {'target': [], 'time': []}, 'edge': {'target': [], 'time': []}}}",10.26,12497.0,1891,,QuestPilot1,,chrome,windows,UNKNOWN,0,0,irlexp7_2,2020-10-07,2020-10-07,2020-10-07,0.0,5,live,0,1,7,1,2020-10-07,0.002,2_4_24,312,False,"['#1b9e77', '#d95f02', '#7570b3']","['Green', 'Orange', 'Purple']",1.37,,,57.81666666666667,0,0,0,0,0
100,,mouselab-mdp,2983744.0,0.0-19.0-1.0-10.0,,"[1241, 960, 684]",,,,,,,[],"['', -2, 4, -48, -24, -4, -8, -48, -24, -2, 4, -24, 24]",4506983446382794552,training,10.0,-46.0,"[None, None, None]","[-2, 4, -48]","['1', '2', '3']","['up', 'up', 'right']","[2624, 4124, 5353]","{'click': {'state': {'target': [], 'time': []}, 'edge': {'target': [], 'time': []}}, 'mouseover': {'state': {'target': [], 'time': []}, 'edge': {'target': [], 'time': []}}, 'mouseout': {'state': {'target': [], 'time': []}, 'edge': {'target': [], 'time': []}}}",10.38,11279.0,1891,,QuestPilot1,,chrome,windows,UNKNOWN,0,0,irlexp7_2,2020-10-07,2020-10-07,2020-10-07,0.0,5,live,0,1,7,1,2020-10-07,0.002,2_4_24,312,False,"['#1b9e77', '#d95f02', '#7570b3']","['Green', 'Orange', 'Purple']",1.37,,,57.81666666666667,0,0,0,0,0
101,,mouselab-mdp,2994586.0,0.0-19.0-1.0-11.0,,"[1193, 512, 778]",,,,,,,[],"['', -4, -4, -24, 48, 4, 8, 24, -24, -2, 8, 24, 48]",-285119094507268281,training,11.0,-32.0,"[None, None, None]","[-4, -4, -24]","['1', '2', '3']","['up', 'up', 'right']","[2020, 3069, 4388]","{'click': {'state': {'target': [], 'time': []}, 'edge': {'target': [], 'time': []}}, 'mouseover': {'state': {'target': [], 'time': []}, 'edge': {'target': [], 'time': []}}, 'mouseout': {'state': {'target': [], 'time': []}, 'edge': {'target': [], 'time': []}}}",8.83,9756.0,1891,,QuestPilot1,,chrome,windows,UNKNOWN,0,0,irlexp7_2,2020-10-07,2020-10-07,2020-10-07,0.0,5,live,0,1,7,1,2020-10-07,0.002,2_4_24,312,False,"['#1b9e77', '#d95f02', '#7570b3']","['Green', 'Orange', 'Purple']",1.37,,,57.81666666666667,0,0,0,0,0
102,,mouselab-mdp,3010470.0,0.0-19.0-1.0-12.0,,"[1540, 883, 1365]",,,,,,,[],"['', 2, 4, 24, 24, -4, -8, 24, 48, -4, -4, -24, -24]",779405771340628543,training,12.0,12.0,"[None, None, None]","[-4, -8, 24]","['5', '6', '7']","['right', 'right', 'up']","[4590, 6001, 7900]","{'click': {'state': {'target': [], 'time': []}, 'edge': {'target': [], 'time': []}}, 'mouseover': {'state': {'target': [], 'time': []}, 'edge': {'target': [], 'time': []}}, 'mouseout': {'state': {'target': [], 'time': []}, 'edge': {'target': [], 'time': []}}}",13.05,14801.0,1891,,QuestPilot1,,chrome,windows,UNKNOWN,0,0,irlexp7_2,2020-10-07,2020-10-07,2020-10-07,0.0,5,live,0,1,7,1,2020-10-07,0.002,2_4_24,312,False,"['#1b9e77', '#d95f02', '#7570b3']","['Green', 'Orange', 'Purple']",1.37,,,57.81666666666667,0,0,0,0,0
103,,mouselab-mdp,3023375.0,0.0-19.0-1.0-13.0,,"[863, 503, 869]",,,,,,,[],"['', 2, -8, 24, 48, 4, 4, 48, 48, 2, -8, -48, -48]",7007154183592665262,training,13.0,18.0,"[None, None, None]","[2, -8, 24]","['1', '2', '3']","['up', 'up', 'right']","[1974, 3022, 4422]","{'click': {'state': {'target': [], 'time': []}, 'edge': {'target': [], 'time': []}}, 'mouseover': {'state': {'target': [], 'time': []}, 'edge': {'target': [], 'time': []}}, 'mouseout': {'state': {'target': [], 'time': []}, 'edge': {'target': [], 'time': []}}}",10.11,11829.0,1891,,QuestPilot1,,chrome,windows,UNKNOWN,0,0,irlexp7_2,2020-10-07,2020-10-07,2020-10-07,0.0,5,live,0,1,7,1,2020-10-07,0.002,2_4_24,312,False,"['#1b9e77', '#d95f02', '#7570b3']","['Green', 'Orange', 'Purple']",1.37,,,57.81666666666667,0,0,0,0,0
104,,mouselab-mdp,3035893.0,0.0-19.0-1.0-14.0,,"[1458, 758, 717]",,,,,,,[],"['', 2, -4, -48, -24, -2, -4, 48, -24, 4, 4, 48, -24]",7520829653297501648,training,14.0,56.0,"[None, None, None]","[4, 4, 48]","['9', '10', '11']","['left', 'left', 'up']","[2452, 3752, 4992]","{'click': {'state': {'target': [], 'time': []}, 'edge': {'target': [], 'time': []}}, 'mouseover': {'state': {'target': [], 'time': []}, 'edge': {'target': [], 'time': []}}, 'mouseout': {'state': {'target': [], 'time': []}, 'edge': {'target': [], 'time': []}}}",9.99,11445.0,1891,,QuestPilot1,,chrome,windows,UNKNOWN,0,0,irlexp7_2,2020-10-07,2020-10-07,2020-10-07,0.0,5,live,0,1,7,1,2020-10-07,0.002,2_4_24,312,False,"['#1b9e77', '#d95f02', '#7570b3']","['Green', 'Orange', 'Purple']",1.37,,,57.81666666666667,0,0,0,0,0
105,,mouselab-mdp,3049693.0,0.0-19.0-1.0-15.0,,"[941, 366, 713]",,,,,,,[],"['', 4, 8, 24, 24, -4, -4, -24, -48, 2, -4, 48, 48]",2060778120775651880,training,15.0,-56.0,"[None, None, None]","[-4, -4, -48]","['5', '6', '8']","['right', 'right', 'down']","[1957, 2841, 4092]","{'click': {'state': {'target': [], 'time': []}, 'edge': {'target': [], 'time': []}}, 'mouseover': {'state': {'target': [], 'time': []}, 'edge': {'target': [], 'time': []}}, 'mouseout': {'state': {'target': [], 'time': []}, 'edge': {'target': [], 'time': []}}}",10.03,12725.0,1891,,QuestPilot1,,chrome,windows,UNKNOWN,0,0,irlexp7_2,2020-10-07,2020-10-07,2020-10-07,0.0,5,live,0,1,7,1,2020-10-07,0.002,2_4_24,312,False,"['#1b9e77', '#d95f02', '#7570b3']","['Green', 'Orange', 'Purple']",1.37,,,57.81666666666667,0,0,0,0,0
106,,mouselab-mdp,3060681.0,0.0-19.0-1.0-16.0,,"[1088, 619, 1466]",,,,,,,[],"['', 4, 4, 48, 24, 4, 8, -24, -48, 2, -4, -48, 24]",-4315514392980277613,training,16.0,-36.0,"[None, None, None]","[4, 8, -48]","['5', '6', '8']","['right', 'right', 'down']","[2319, 3472, 5473]","{'click': {'state': {'target': [], 'time': []}, 'edge': {'target': [], 'time': []}}, 'mouseover': {'state': {'target': [], 'time': []}, 'edge': {'target': [], 'time': []}}, 'mouseout': {'state': {'target': [], 'time': []}, 'edge': {'target': [], 'time': []}}}",8.23,9904.0,1891,,QuestPilot1,,chrome,windows,UNKNOWN,0,0,irlexp7_2,2020-10-07,2020-10-07,2020-10-07,0.0,5,live,0,1,7,1,2020-10-07,0.002,2_4_24,312,False,"['#1b9e77', '#d95f02', '#7570b3']","['Green', 'Orange', 'Purple']",1.37,,,57.81666666666667,0,0,0,0,0
107,,mouselab-mdp,3071892.0,0.0-19.0-1.0-17.0,,"[994, 517, 569]",,,,,,,[],"['', -2, 4, 24, -24, 4, -8, 24, -24, 4, -4, 48, -24]",624243419020886250,training,17.0,-22.0,"[None, None, None]","[-2, 4, -24]","['1', '2', '4']","['up', 'up', 'left']","[1878, 2938, 4049]","{'click': {'state': {'target': [], 'time': []}, 'edge': {'target': [], 'time': []}}, 'mouseover': {'state': {'target': [], 'time': []}, 'edge': {'target': [], 'time': []}}, 'mouseout': {'state': {'target': [], 'time': []}, 'edge': {'target': [], 'time': []}}}",8.89,10120.0,1891,,QuestPilot1,,chrome,windows,UNKNOWN,0,0,irlexp7_2,2020-10-07,2020-10-07,2020-10-07,0.0,5,live,0,1,7,1,2020-10-07,0.002,2_4_24,312,False,"['#1b9e77', '#d95f02', '#7570b3']","['Green', 'Orange', 'Purple']",1.37,,,57.81666666666667,0,0,0,0,0
108,,mouselab-mdp,3083921.0,0.0-19.0-1.0-18.0,,"[1205, 467, 1343]",,,,,,,[],"['', -2, -8, -48, 24, -4, -4, -24, -48, 2, -8, 24, 24]",8324563381047186377,training,18.0,14.0,"[None, None, None]","[-2, -8, 24]","['1', '2', '4']","['up', 'up', 'left']","[2162, 3171, 5046]","{'click': {'state': {'target': [], 'time': []}, 'edge': {'target': [], 'time': []}}, 'mouseover': {'state': {'target': [], 'time': []}, 'edge': {'target': [], 'time': []}}, 'mouseout': {'state': {'target': [], 'time': []}, 'edge': {'target': [], 'time': []}}}",7.96,10933.0,1891,,QuestPilot1,,chrome,windows,UNKNOWN,0,0,irlexp7_2,2020-10-07,2020-10-07,2020-10-07,0.0,5,live,0,1,7,1,2020-10-07,0.002,2_4_24,312,False,"['#1b9e77', '#d95f02', '#7570b3']","['Green', 'Orange', 'Purple']",1.37,,,57.81666666666667,0,0,0,0,0
109,,mouselab-mdp,3094796.0,0.0-19.0-1.0-19.0,,"[2002, 689, 547]",,,,,,,[],"['', -4, -4, 48, -48, -2, -8, 48, 48, -4, -4, -48, 48]",7160689332333860190,training,19.0,38.0,"[None, None, None]","[-2, -8, 48]","['5', '6', '8']","['right', 'right', 'down']","[2985, 4219, 5295]","{'click': {'state': {'target': [], 'time': []}, 'edge': {'target': [], 'time': []}}, 'mouseover': {'state': {'target': [], 'time': []}, 'edge': {'target': [], 'time': []}}, 'mouseout': {'state': {'target': [], 'time': []}, 'edge': {'target': [], 'time': []}}}",7.98,9791.0,1891,,QuestPilot1,,chrome,windows,UNKNOWN,0,0,irlexp7_2,2020-10-07,2020-10-07,2020-10-07,0.0,5,live,0,1,7,1,2020-10-07,0.002,2_4_24,312,False,"['#1b9e77', '#d95f02', '#7570b3']","['Green', 'Orange', 'Purple']",1.37,,,57.81666666666667,0,0,0,0,0
110,,mouselab-mdp,3106870.0,0.0-19.0-1.0-20.0,,"[1032, 514, 481]",,,,,,,[],"['', -2, -8, 24, 24, 2, -4, 24, -48, -2, -4, -24, -48]",7037128295931229090,test,20.0,22.0,"[None, None, None]","[2, -4, 24]","['5', '6', '7']","['right', 'right', 'up']","[2883, 3930, 4930]","{'click': {'state': {'target': [], 'time': []}, 'edge': {'target': [], 'time': []}}, 'mouseover': {'state': {'target': [], 'time': []}, 'edge': {'target': [], 'time': []}}, 'mouseout': {'state': {'target': [], 'time': []}, 'edge': {'target': [], 'time': []}}}",8.85,11001.0,1891,,QuestPilot1,,chrome,windows,UNKNOWN,0,0,irlexp7_2,2020-10-07,2020-10-07,2020-10-07,0.0,5,live,0,1,7,1,2020-10-07,0.002,2_4_24,312,False,"['#1b9e77', '#d95f02', '#7570b3']","['Green', 'Orange', 'Purple']",1.37,,,57.81666666666667,0,0,0,0,0
111,,mouselab-mdp,3117840.0,0.0-19.0-1.0-21.0,,"[1206, 479, 412]",,,,,,,[],"['', -2, -8, 24, 24, -2, -8, 24, -24, 4, -4, 24, -48]",7419235085028046283,test,21.0,14.0,"[None, None, None]","[-2, -8, 24]","['1', '2', '3']","['up', 'up', 'right']","[2586, 3599, 4535]","{'click': {'state': {'target': [], 'time': []}, 'edge': {'target': [], 'time': []}}, 'mouseover': {'state': {'target': [], 'time': []}, 'edge': {'target': [], 'time': []}}, 'mouseout': {'state': {'target': [], 'time': []}, 'edge': {'target': [], 'time': []}}}",8.38,9896.0,1891,,QuestPilot1,,chrome,windows,UNKNOWN,0,0,irlexp7_2,2020-10-07,2020-10-07,2020-10-07,0.0,5,live,0,1,7,1,2020-10-07,0.002,2_4_24,312,False,"['#1b9e77', '#d95f02', '#7570b3']","['Green', 'Orange', 'Purple']",1.37,,,57.81666666666667,0,0,0,0,0
112,,mouselab-mdp,3130639.0,0.0-19.0-1.0-22.0,,"[1902, 130, 1040]",,,,,,,[],"['', 2, -4, -48, 48, -4, -8, -24, -24, -4, 4, -48, 24]",-6157917720371000130,test,22.0,46.0,"[None, None, None]","[2, -4, 48]","['1', '2', '4']","['up', 'up', 'left']","[3305, 3979, 5541]","{'click': {'state': {'target': [], 'time': []}, 'edge': {'target': [], 'time': []}}, 'mouseover': {'state': {'target': [], 'time': []}, 'edge': {'target': [], 'time': []}}, 'mouseout': {'state': {'target': [], 'time': []}, 'edge': {'target': [], 'time': []}}}",10.43,11700.0,1891,,QuestPilot1,,chrome,windows,UNKNOWN,0,0,irlexp7_2,2020-10-07,2020-10-07,2020-10-07,0.0,5,live,0,1,7,1,2020-10-07,0.002,2_4_24,312,False,"['#1b9e77', '#d95f02', '#7570b3']","['Green', 'Orange', 'Purple']",1.37,,,57.81666666666667,0,0,0,0,0
113,,mouselab-mdp,3144080.0,0.0-19.0-1.0-23.0,,"[1230, 596, 512]",,,,,,,[],"['', -4, -4, -48, 24, 4, 4, 48, -24, 4, -4, 48, 24]",1518845473617230857,test,23.0,48.0,"[None, None, None]","[4, -4, 48]","['9', '10', '11']","['left', 'left', 'up']","[3709, 4840, 5880]","{'click': {'state': {'target': [], 'time': []}, 'edge': {'target': [], 'time': []}}, 'mouseover': {'state': {'target': [], 'time': []}, 'edge': {'target': [], 'time': []}}, 'mouseout': {'state': {'target': [], 'time': []}, 'edge': {'target': [], 'time': []}}}",9.48,12350.0,1891,,QuestPilot1,,chrome,windows,UNKNOWN,0,0,irlexp7_2,2020-10-07,2020-10-07,2020-10-07,0.0,5,live,0,1,7,1,2020-10-07,0.002,2_4_24,312,False,"['#1b9e77', '#d95f02', '#7570b3']","['Green', 'Orange', 'Purple']",1.37,,,57.81666666666667,0,0,0,0,0
114,,mouselab-mdp,3157375.0,0.0-19.0-1.0-24.0,,"[1307, 550, 474]",,,,,,,[],"['', 2, -4, -24, -24, -4, 4, 24, -48, 4, 8, 48, 48]",-4250475312149299523,test,24.0,60.0,"[None, None, None]","[4, 8, 48]","['9', '10', '12']","['left', 'left', 'down']","[4016, 5097, 6116]","{'click': {'state': {'target': [], 'time': []}, 'edge': {'target': [], 'time': []}}, 'mouseover': {'state': {'target': [], 'time': []}, 'edge': {'target': [], 'time': []}}, 'mouseout': {'state': {'target': [], 'time': []}, 'edge': {'target': [], 'time': []}}}",9.71,12200.0,1891,,QuestPilot1,,chrome,windows,UNKNOWN,0,0,irlexp7_2,2020-10-07,2020-10-07,2020-10-07,0.0,5,live,0,1,7,1,2020-10-07,0.002,2_4_24,312,False,"['#1b9e77', '#d95f02', '#7570b3']","['Green', 'Orange', 'Purple']",1.37,,,57.81666666666667,0,0,0,0,0
115,,mouselab-mdp,3171015.0,0.0-19.0-1.0-25.0,,"[909, 758, 547]",,,,,,,[],"['', 2, 8, 48, 48, -4, -8, 24, 48, 4, 4, 48, 24]",461011171885628255,test,25.0,36.0,"[None, None, None]","[-4, -8, 48]","['5', '6', '8']","['right', 'right', 'down']","[3469, 4749, 5819]","{'click': {'state': {'target': [], 'time': []}, 'edge': {'target': [], 'time': []}}, 'mouseover': {'state': {'target': [], 'time': []}, 'edge': {'target': [], 'time': []}}, 'mouseout': {'state': {'target': [], 'time': []}, 'edge': {'target': [], 'time': []}}}",10.56,12565.0,1891,,QuestPilot1,,chrome,windows,UNKNOWN,0,0,irlexp7_2,2020-10-07,2020-10-07,2020-10-07,0.0,5,live,0,1,7,1,2020-10-07,0.002,2_4_24,312,False,"['#1b9e77', '#d95f02', '#7570b3']","['Green', 'Orange', 'Purple']",1.37,,,57.81666666666667,0,0,0,0,0
116,,mouselab-mdp,3185926.0,0.0-19.0-1.0-26.0,,"[1192, 223, 565]",,,,,,,[],"['', 2, 4, -24, 24, 4, -8, -48, 48, 2, 4, -48, -24]",-6749536114215069364,test,26.0,-52.0,"[None, None, None]","[4, -8, -48]","['5', '6', '7']","['right', 'right', 'up']","[3907, 4665, 5756]","{'click': {'state': {'target': [], 'time': []}, 'edge': {'target': [], 'time': []}}, 'mouseover': {'state': {'target': [], 'time': []}, 'edge': {'target': [], 'time': []}}, 'mouseout': {'state': {'target': [], 'time': []}, 'edge': {'target': [], 'time': []}}}",10.72,13833.0,1891,,QuestPilot1,,chrome,windows,UNKNOWN,0,0,irlexp7_2,2020-10-07,2020-10-07,2020-10-07,0.0,5,live,0,1,7,1,2020-10-07,0.002,2_4_24,312,False,"['#1b9e77', '#d95f02', '#7570b3']","['Green', 'Orange', 'Purple']",1.37,,,57.81666666666667,0,0,0,0,0
117,,mouselab-mdp,3198015.0,0.0-19.0-1.0-27.0,,"[1297, 222, 801]",,,,,,,[],"['', 2, -4, -48, 24, 2, 4, -48, 48, -4, 4, 48, -48]",5297217084176217776,test,27.0,-50.0,"[None, None, None]","[2, -4, -48]","['1', '2', '3']","['up', 'up', 'right']","[3048, 3787, 5117]","{'click': {'state': {'target': [], 'time': []}, 'edge': {'target': [], 'time': []}}, 'mouseover': {'state': {'target': [], 'time': []}, 'edge': {'target': [], 'time': []}}, 'mouseout': {'state': {'target': [], 'time': []}, 'edge': {'target': [], 'time': []}}}",8.75,10983.0,1891,,QuestPilot1,,chrome,windows,UNKNOWN,0,0,irlexp7_2,2020-10-07,2020-10-07,2020-10-07,0.0,5,live,0,1,7,1,2020-10-07,0.002,2_4_24,312,False,"['#1b9e77', '#d95f02', '#7570b3']","['Green', 'Orange', 'Purple']",1.37,,,57.81666666666667,0,0,0,0,0
118,,mouselab-mdp,3210955.0,0.0-19.0-1.0-28.0,,"[1017, 455, 692]",,,,,,,[],"['', -4, 8, -48, 24, -2, 4, -48, -48, 4, 8, -24, 24]",6406480628110734882,test,28.0,28.0,"[None, None, None]","[-4, 8, 24]","['1', '2', '4']","['up', 'up', 'left']","[2382, 3362, 4602]","{'click': {'state': {'target': [], 'time': []}, 'edge': {'target': [], 'time': []}}, 'mouseover': {'state': {'target': [], 'time': []}, 'edge': {'target': [], 'time': []}}, 'mouseout': {'state': {'target': [], 'time': []}, 'edge': {'target': [], 'time': []}}}",9.37,11858.0,1891,,QuestPilot1,,chrome,windows,UNKNOWN,0,0,irlexp7_2,2020-10-07,2020-10-07,2020-10-07,0.0,5,live,0,1,7,1,2020-10-07,0.002,2_4_24,312,False,"['#1b9e77', '#d95f02', '#7570b3']","['Green', 'Orange', 'Purple']",1.37,,,57.81666666666667,0,0,0,0,0
119,,mouselab-mdp,3227461.0,0.0-19.0-1.0-29.0,,"[1348, 723, 722]",,,,,,,[],"['', -4, -4, -24, 48, 4, -4, 24, -48, 2, -4, 48, 24]",6161527313159369870,test,29.0,46.0,"[None, None, None]","[2, -4, 48]","['9', '10', '11']","['left', 'left', 'up']","[3229, 4479, 5729]","{'click': {'state': {'target': [], 'time': []}, 'edge': {'target': [], 'time': []}}, 'mouseover': {'state': {'target': [], 'time': []}, 'edge': {'target': [], 'time': []}}, 'mouseout': {'state': {'target': [], 'time': []}, 'edge': {'target': [], 'time': []}}}",10.88,15431.0,1891,,QuestPilot1,,chrome,windows,UNKNOWN,0,0,irlexp7_2,2020-10-07,2020-10-07,2020-10-07,0.0,5,live,0,1,7,1,2020-10-07,0.002,2_4_24,312,False,"['#1b9e77', '#d95f02', '#7570b3']","['Green', 'Orange', 'Purple']",1.37,,,57.81666666666667,0,0,0,0,0
120,,mouselab-mdp,695232.0,0.0-19.0-1.0-0.0,,"[15425, 400, 396]",,,,,,,[],"['', -4, -8, -48, -48, -2, -8, -48, 48, -2, 4, -24, -24]",5130275037508485152,training,0.0,26.0,"[None, None, None]","[-2, -8, 48]","['5', '6', '8']","['right', 'right', 'down']","[18489, 19408, 20303]","{'click': {'state': {'target': ['1', '2', '3', '5', '6', '8', '7', '9', '10', '11', '12', '4'], 'time': [5081, 5936, 6527, 7127, 7553, 8198, 8811, 9823, 10347, 10854, 11530, 13056]}, 'edge': {'target': [], 'time': []}}, 'mouseover': {'state': {'target': [], 'time': []}, 'edge': {'target': [], 'time': []}}, 'mouseout': {'state': {'target': [], 'time': []}, 'edge': {'target': [], 'time': []}}}",20.81,21790.0,1892,,QuestPilot1,,chrome,windows,UNKNOWN,0,0,irlexp7_2,2020-10-07,2020-10-07,2020-10-07,0.0,5,live,0,1,7,1,2020-10-07,0.002,2_4_24,312,False,"['#1b9e77', '#d95f02', '#7570b3']","['Green', 'Orange', 'Purple']",2.72,,,21.116666666666667,12,3,3,6,12
121,,mouselab-mdp,706263.0,0.0-19.0-1.0-1.0,,"[4666, 209, 171]",,,,,,,[],"['', -4, -8, 48, -48, -2, -8, 48, 24, -2, 8, 24, -24]",6221411054408101109,training,1.0,34.0,"[None, None, None]","[-2, -8, 48]","['5', '6', '7']","['right', 'right', 'up']","[6141, 6852, 7547]","{'click': {'state': {'target': ['5', '6', '8', '7'], 'time': [2738, 3389, 4002, 4618]}, 'edge': {'target': [], 'time': []}}, 'mouseover': {'state': {'target': [], 'time': []}, 'edge': {'target': [], 'time': []}}, 'mouseout': {'state': {'target': [], 'time': []}, 'edge': {'target': [], 'time': []}}}",9.47,9906.0,1892,,QuestPilot1,,chrome,windows,UNKNOWN,0,0,irlexp7_2,2020-10-07,2020-10-07,2020-10-07,0.0,5,live,0,1,7,1,2020-10-07,0.002,2_4_24,312,False,"['#1b9e77', '#d95f02', '#7570b3']","['Green', 'Orange', 'Purple']",2.72,,,21.116666666666667,4,1,1,2,4
122,,mouselab-mdp,719151.0,0.0-19.0-1.0-2.0,,"[7837, 445, 400]",,,,,,,[],"['', 4, -4, 24, -24, -2, -4, -24, -24, 2, -4, 48, 24]",1598574912455297978,training,2.0,38.0,"[None, None, None]","[2, -4, 48]","['9', '10', '11']","['left', 'left', 'up']","[8903, 9847, 10767]","{'click': {'state': {'target': ['4', '3', '7', '8', '12', '11', '10', '9'], 'time': [2107, 3446, 4098, 4874, 5956, 6570, 7261, 7754]}, 'edge': {'target': [], 'time': []}}, 'mouseover': {'state': {'target': [], 'time': []}, 'edge': {'target': [], 'time': []}}, 'mouseout': {'state': {'target': [], 'time': []}, 'edge': {'target': [], 'time': []}}}",11.28,11806.0,1892,,QuestPilot1,,chrome,windows,UNKNOWN,0,0,irlexp7_2,2020-10-07,2020-10-07,2020-10-07,0.0,5,live,0,1,7,1,2020-10-07,0.002,2_4_24,312,False,"['#1b9e77', '#d95f02', '#7570b3']","['Green', 'Orange', 'Purple']",2.72,,,21.116666666666667,8,1,1,6,8
123,,mouselab-mdp,730919.0,0.0-19.0-1.0-3.0,,"[4837, 269, 309]",,,,,,,[],"['', -2, 8, 24, 48, -2, -8, 48, 48, 2, 4, 24, 48]",1013767336841409156,training,3.0,50.0,"[None, None, None]","[-2, 8, 48]","['1', '2', '4']","['up', 'up', 'left']","[6004, 6788, 7613]","{'click': {'state': {'target': ['11', '4', '2', '1'], 'time': [2299, 3143, 4599, 5037]}, 'edge': {'target': [], 'time': []}}, 'mouseover': {'state': {'target': [], 'time': []}, 'edge': {'target': [], 'time': []}}, 'mouseout': {'state': {'target': [], 'time': []}, 'edge': {'target': [], 'time': []}}}",10.17,10658.0,1892,,QuestPilot1,,chrome,windows,UNKNOWN,0,0,irlexp7_2,2020-10-07,2020-10-07,2020-10-07,0.0,5,live,0,1,7,1,2020-10-07,0.002,2_4_24,312,False,"['#1b9e77', '#d95f02', '#7570b3']","['Green', 'Orange', 'Purple']",2.72,,,21.116666666666667,4,1,1,2,4
124,,mouselab-mdp,745359.0,0.0-19.0-1.0-4.0,,"[9823, 184, 195]",,,,,,,[],"['', 2, 4, -24, 48, -2, -8, 48, 24, 4, 8, -48, -48]",-2597539031851427286,training,4.0,43.0,"[None, None, None]","[2, 4, 48]","['1', '2', '4']","['up', 'up', 'left']","[11023, 11703, 12397]","{'click': {'state': {'target': ['3', '7', '6', '5', '11', '12', '10', '9', '1', '2', '4'], 'time': [2368, 3496, 5278, 5870, 6951, 7646, 8014, 8365, 9085, 9541, 9880]}, 'edge': {'target': [], 'time': []}}, 'mouseover': {'state': {'target': [], 'time': []}, 'edge': {'target': [], 'time': []}}, 'mouseout': {'state': {'target': [], 'time': []}, 'edge': {'target': [], 'time': []}}}",12.92,13333.0,1892,,QuestPilot1,,chrome,windows,UNKNOWN,0,0,irlexp7_2,2020-10-07,2020-10-07,2020-10-07,0.0,5,live,0,1,7,1,2020-10-07,0.002,2_4_24,312,False,"['#1b9e77', '#d95f02', '#7570b3']","['Green', 'Orange', 'Purple']",2.72,,,21.116666666666667,11,3,3,5,11
125,,mouselab-mdp,763567.0,0.0-19.0-1.0-5.0,,"[10681, 119, 196]",,,,,,,[],"['', -2, 4, 48, -48, 4, -8, 48, 24, -2, -8, 24, 48]",-4507891731722671583,training,5.0,38.0,"[None, None, None]","[-2, 4, 48]","['1', '2', '3']","['up', 'up', 'right']","[14417, 15045, 15741]","{'click': {'state': {'target': ['7', '6', '5', '8', '9', '10', '12', '11', '1', '2', '3', '4'], 'time': [5254, 5692, 6290, 7037, 8075, 8556, 8947, 9476, 10123, 10550, 10897, 11329]}, 'edge': {'target': [], 'time': []}}, 'mouseover': {'state': {'target': [], 'time': []}, 'edge': {'target': [], 'time': []}}, 'mouseout': {'state': {'target': [], 'time': []}, 'edge': {'target': [], 'time': []}}}",16.26,17116.0,1892,,QuestPilot1,,chrome,windows,UNKNOWN,0,0,irlexp7_2,2020-10-07,2020-10-07,2020-10-07,0.0,5,live,0,1,7,1,2020-10-07,0.002,2_4_24,312,False,"['#1b9e77', '#d95f02', '#7570b3']","['Green', 'Orange', 'Purple']",2.72,,,21.116666666666667,12,3,3,6,12
126,,mouselab-mdp,775401.0,0.0-19.0-1.0-6.0,,"[4450, 181, 158]",,,,,,,[],"['', -4, -8, -48, -48, 4, 4, 24, 48, -4, -4, 24, 48]",7072607725447389718,training,6.0,52.0,"[None, None, None]","[4, 4, 48]","['5', '6', '8']","['right', 'right', 'down']","[6871, 7567, 8248]","{'click': {'state': {'target': ['7', '6', '8', '5'], 'time': [3588, 4523, 5290, 5947]}, 'edge': {'target': [], 'time': []}}, 'mouseover': {'state': {'target': [], 'time': []}, 'edge': {'target': [], 'time': []}}, 'mouseout': {'state': {'target': [], 'time': []}, 'edge': {'target': [], 'time': []}}}",10.42,10727.0,1892,,QuestPilot1,,chrome,windows,UNKNOWN,0,0,irlexp7_2,2020-10-07,2020-10-07,2020-10-07,0.0,5,live,0,1,7,1,2020-10-07,0.002,2_4_24,312,False,"['#1b9e77', '#d95f02', '#7570b3']","['Green', 'Orange', 'Purple']",2.72,,,21.116666666666667,4,1,1,2,4
127,,mouselab-mdp,787119.0,0.0-19.0-1.0-7.0,,"[3632, 197, 210]",,,,,,,[],"['', -4, 4, -48, -24, 4, 4, 24, -48, -2, 4, 48, -48]",-3241889818231129669,training,7.0,46.0,"[None, None, None]","[-2, 4, 48]","['9', '10', '11']","['left', 'left', 'up']","[6070, 6787, 7516]","{'click': {'state': {'target': ['12', '10', '11', '9'], 'time': [3472, 4135, 4649, 5238]}, 'edge': {'target': [], 'time': []}}, 'mouseover': {'state': {'target': [], 'time': []}, 'edge': {'target': [], 'time': []}}, 'mouseout': {'state': {'target': [], 'time': []}, 'edge': {'target': [], 'time': []}}}",10.44,10635.0,1892,,QuestPilot1,,chrome,windows,UNKNOWN,0,0,irlexp7_2,2020-10-07,2020-10-07,2020-10-07,0.0,5,live,0,1,7,1,2020-10-07,0.002,2_4_24,312,False,"['#1b9e77', '#d95f02', '#7570b3']","['Green', 'Orange', 'Purple']",2.72,,,21.116666666666667,4,1,1,2,4
128,,mouselab-mdp,798687.0,0.0-19.0-1.0-8.0,,"[4260, 123, 74]",,,,,,,[],"['', 2, 8, 48, -24, 2, 8, -24, 24, -4, -4, -48, 24]",-2410285785025730749,training,8.0,55.0,"[None, None, None]","[2, 8, 48]","['1', '2', '3']","['up', 'up', 'right']","[5999, 6638, 7206]","{'click': {'state': {'target': ['1', '2', '3'], 'time': [2631, 3319, 4382]}, 'edge': {'target': [], 'time': []}}, 'mouseover': {'state': {'target': [], 'time': []}, 'edge': {'target': [], 'time': []}}, 'mouseout': {'state': {'target': [], 'time': []}, 'edge': {'target': [], 'time': []}}}",9.74,10477.0,1892,,QuestPilot1,,chrome,windows,UNKNOWN,0,0,irlexp7_2,2020-10-07,2020-10-07,2020-10-07,0.0,5,live,0,1,7,1,2020-10-07,0.002,2_4_24,312,False,"['#1b9e77', '#d95f02', '#7570b3']","['Green', 'Orange', 'Purple']",2.72,,,21.116666666666667,3,1,1,1,3
129,,mouselab-mdp,811151.0,0.0-19.0-1.0-9.0,,"[7808, 174, 309]",,,,,,,[],"['', -4, -4, -24, 48, 4, -4, 24, -48, 2, -4, 48, 24]",6161527313159369870,training,9.0,39.0,"[None, None, None]","[2, -4, 48]","['9', '10', '11']","['left', 'left', 'up']","[9002, 9672, 10473]","{'click': {'state': {'target': ['5', '6', '7', '8', '11', '10', '9'], 'time': [2473, 3100, 3973, 4582, 6734, 7590, 7912]}, 'edge': {'target': [], 'time': []}}, 'mouseover': {'state': {'target': [], 'time': []}, 'edge': {'target': [], 'time': []}}, 'mouseout': {'state': {'target': [], 'time': []}, 'edge': {'target': [], 'time': []}}}",10.98,11375.0,1892,,QuestPilot1,,chrome,windows,UNKNOWN,0,0,irlexp7_2,2020-10-07,2020-10-07,2020-10-07,0.0,5,live,0,1,7,1,2020-10-07,0.002,2_4_24,312,False,"['#1b9e77', '#d95f02', '#7570b3']","['Green', 'Orange', 'Purple']",2.72,,,21.116666666666667,7,2,2,3,7
130,,mouselab-mdp,829031.0,0.0-19.0-1.0-10.0,,"[11844, 101, 268]",,,,,,,[],"['', -4, 8, -48, 24, -2, 4, -48, -48, 4, 8, -24, 24]",6406480628110734882,training,10.0,24.0,"[None, None, None]","[4, 8, 24]","['9', '10', '12']","['left', 'left', 'down']","[14399, 15021, 15805]","{'click': {'state': {'target': ['1', '2', '4', '3', '5', '6', '7', '8', '9', '10', '12', '11'], 'time': [3380, 3996, 4474, 4931, 5823, 6171, 6530, 7236, 8707, 9220, 9646, 10107]}, 'edge': {'target': [], 'time': []}}, 'mouseover': {'state': {'target': [], 'time': []}, 'edge': {'target': [], 'time': []}}, 'mouseout': {'state': {'target': [], 'time': []}, 'edge': {'target': [], 'time': []}}}",16.32,16780.0,1892,,QuestPilot1,,chrome,windows,UNKNOWN,0,0,irlexp7_2,2020-10-07,2020-10-07,2020-10-07,0.0,5,live,0,1,7,1,2020-10-07,0.002,2_4_24,312,False,"['#1b9e77', '#d95f02', '#7570b3']","['Green', 'Orange', 'Purple']",2.72,,,21.116666666666667,12,3,3,6,12
131,,mouselab-mdp,845350.0,0.0-19.0-1.0-11.0,,"[10327, 249, 572]",,,,,,,[],"['', -2, 8, -24, 24, 2, -8, -48, -24, 4, -4, 48, -48]",-6373051720525898386,training,11.0,36.0,"[None, None, None]","[4, -4, 48]","['9', '10', '11']","['left', 'left', 'up']","[12231, 12998, 14070]","{'click': {'state': {'target': ['9', '10', '12', '11', '4', '2', '3', '1', '5', '6', '7', '8'], 'time': [2773, 3665, 4194, 4882, 5898, 7064, 8264, 8792, 9616, 10001, 10433, 10845]}, 'edge': {'target': [], 'time': []}}, 'mouseover': {'state': {'target': [], 'time': []}, 'edge': {'target': [], 'time': []}}, 'mouseout': {'state': {'target': [], 'time': []}, 'edge': {'target': [], 'time': []}}}",14.58,15229.0,1892,,QuestPilot1,,chrome,windows,UNKNOWN,0,0,irlexp7_2,2020-10-07,2020-10-07,2020-10-07,0.0,5,live,0,1,7,1,2020-10-07,0.002,2_4_24,312,False,"['#1b9e77', '#d95f02', '#7570b3']","['Green', 'Orange', 'Purple']",2.72,,,21.116666666666667,12,3,3,6,12
132,,mouselab-mdp,858758.0,0.0-19.0-1.0-12.0,,"[8469, 212, 194]",,,,,,,[],"['', -2, 4, -48, -24, -2, 4, 48, -24, 4, -4, 24, -48]",6475017069789500892,training,12.0,38.0,"[None, None, None]","[-2, 4, 48]","['5', '6', '7']","['right', 'right', 'up']","[9843, 10547, 11262]","{'click': {'state': {'target': ['10', '9', '12', '11', '4', '2', '3', '1', '5', '6', '8', '7'], 'time': [2165, 2619, 3268, 3876, 4507, 4883, 5387, 5840, 6502, 6944, 7308, 8608]}, 'edge': {'target': [], 'time': []}}, 'mouseover': {'state': {'target': [], 'time': []}, 'edge': {'target': [], 'time': []}}, 'mouseout': {'state': {'target': [], 'time': []}, 'edge': {'target': [], 'time': []}}}",11.75,12322.0,1892,,QuestPilot1,,chrome,windows,UNKNOWN,0,0,irlexp7_2,2020-10-07,2020-10-07,2020-10-07,0.0,5,live,0,1,7,1,2020-10-07,0.002,2_4_24,312,False,"['#1b9e77', '#d95f02', '#7570b3']","['Green', 'Orange', 'Purple']",2.72,,,21.116666666666667,12,3,3,6,12
133,,mouselab-mdp,873902.0,0.0-19.0-1.0-13.0,,"[10561, 106, 186]",,,,,,,[],"['', 2, -4, 48, -24, -2, 4, 48, -48, 2, 8, -48, 24]",-302495073277821160,training,13.0,22.0,"[None, None, None]","[2, 8, 24]","['9', '10', '12']","['left', 'left', 'down']","[11882, 12495, 13175]","{'click': {'state': {'target': ['5', '6', '7', '8', '11', '10', '9', '12', '1', '2', '3', '4'], 'time': [2184, 2622, 3056, 3562, 5425, 5898, 6257, 6750, 7458, 8050, 8361, 8925]}, 'edge': {'target': [], 'time': []}}, 'mouseover': {'state': {'target': [], 'time': []}, 'edge': {'target': [], 'time': []}}, 'mouseout': {'state': {'target': [], 'time': []}, 'edge': {'target': [], 'time': []}}}",13.69,14054.0,1892,,QuestPilot1,,chrome,windows,UNKNOWN,0,0,irlexp7_2,2020-10-07,2020-10-07,2020-10-07,0.0,5,live,0,1,7,1,2020-10-07,0.002,2_4_24,312,False,"['#1b9e77', '#d95f02', '#7570b3']","['Green', 'Orange', 'Purple']",2.72,,,21.116666666666667,12,3,3,6,12
134,,mouselab-mdp,888991.0,0.0-19.0-1.0-14.0,,"[9254, 166, 178]",,,,,,,[],"['', -4, -4, -24, 24, -4, -8, -48, -48, 2, -4, -24, 24]",-5712514638697657456,training,14.0,10.0,"[None, None, None]","[2, -4, 24]","['9', '10', '12']","['left', 'left', 'down']","[11592, 12280, 12977]","{'click': {'state': {'target': ['1', '2', '3', '4', '5', '6', '8', '7', '9', '10', '11', '12'], 'time': [3134, 3652, 4002, 4590, 5280, 5759, 6309, 6885, 7661, 8077, 8485, 8948]}, 'edge': {'target': [], 'time': []}}, 'mouseover': {'state': {'target': [], 'time': []}, 'edge': {'target': [], 'time': []}}, 'mouseout': {'state': {'target': [], 'time': []}, 'edge': {'target': [], 'time': []}}}",13.48,14000.0,1892,,QuestPilot1,,chrome,windows,UNKNOWN,0,0,irlexp7_2,2020-10-07,2020-10-07,2020-10-07,0.0,5,live,0,1,7,1,2020-10-07,0.002,2_4_24,312,False,"['#1b9e77', '#d95f02', '#7570b3']","['Green', 'Orange', 'Purple']",2.72,,,21.116666666666667,12,3,3,6,12
135,,mouselab-mdp,903750.0,0.0-19.0-1.0-15.0,,"[9731, 119, 67]",,,,,,,[],"['', -2, 4, -24, 48, -2, 4, -24, 48, 4, -8, 24, 48]",336485828046445828,training,15.0,38.0,"[None, None, None]","[-2, 4, 48]","['1', '2', '4']","['up', 'up', 'left']","[11537, 12169, 12753]","{'click': {'state': {'target': ['5', '6', '8', '7', '1', '2', '3', '4', '11', '10', '9', '12'], 'time': [2702, 3063, 3353, 3969, 5062, 5557, 5860, 6572, 7614, 8252, 8572, 9270]}, 'edge': {'target': [], 'time': []}}, 'mouseover': {'state': {'target': [], 'time': []}, 'edge': {'target': [], 'time': []}}, 'mouseout': {'state': {'target': [], 'time': []}, 'edge': {'target': [], 'time': []}}}",13.27,13664.0,1892,,QuestPilot1,,chrome,windows,UNKNOWN,0,0,irlexp7_2,2020-10-07,2020-10-07,2020-10-07,0.0,5,live,0,1,7,1,2020-10-07,0.002,2_4_24,312,False,"['#1b9e77', '#d95f02', '#7570b3']","['Green', 'Orange', 'Purple']",2.72,,,21.116666666666667,12,3,3,6,12
136,,mouselab-mdp,917438.0,0.0-19.0-1.0-16.0,,"[8217, 664, 176]",,,,,,,[],"['', -2, 8, -24, -24, -2, 4, -48, 24, -4, -8, 48, -48]",5441343193922839396,training,16.0,24.0,"[None, None, None]","[-4, -8, 48]","['9', '10', '11']","['left', 'left', 'up']","[9782, 10958, 11654]","{'click': {'state': {'target': ['5', '6', '7', '8', '1', '2', '3', '4', '11', '10', '12', '9'], 'time': [2948, 3377, 3807, 4814, 5460, 5860, 6173, 6957, 7612, 8228, 8576, 8924]}, 'edge': {'target': [], 'time': []}}, 'mouseover': {'state': {'target': [], 'time': []}, 'edge': {'target': [], 'time': []}}, 'mouseout': {'state': {'target': [], 'time': []}, 'edge': {'target': [], 'time': []}}}",12.16,12565.0,1892,,QuestPilot1,,chrome,windows,UNKNOWN,0,0,irlexp7_2,2020-10-07,2020-10-07,2020-10-07,0.0,5,live,0,1,7,1,2020-10-07,0.002,2_4_24,312,False,"['#1b9e77', '#d95f02', '#7570b3']","['Green', 'Orange', 'Purple']",2.72,,,21.116666666666667,12,3,3,6,12
137,,mouselab-mdp,954880.0,0.0-19.0-1.0-17.0,,"[3279, 379, 128]",,,,,,,[],"['', 4, 4, 48, -24, 4, -4, -48, 48, 2, -8, 48, 24]",-8580200434703875697,training,17.0,52.0,"[None, None, None]","[4, 4, 48]","['1', '2', '3']","['up', 'up', 'right']","[5250, 6130, 6778]","{'click': {'state': {'target': ['1', '2', '4', '3'], 'time': [2747, 3135, 3447, 3870]}, 'edge': {'target': [], 'time': []}}, 'mouseover': {'state': {'target': [], 'time': []}, 'edge': {'target': [], 'time': []}}, 'mouseout': {'state': {'target': [], 'time': []}, 'edge': {'target': [], 'time': []}}}",9.97,36347.0,1892,,QuestPilot1,,chrome,windows,UNKNOWN,0,0,irlexp7_2,2020-10-07,2020-10-07,2020-10-07,0.0,5,live,0,1,7,1,2020-10-07,0.002,2_4_24,312,False,"['#1b9e77', '#d95f02', '#7570b3']","['Green', 'Orange', 'Purple']",2.72,,,21.116666666666667,4,1,1,2,4
138,,mouselab-mdp,965904.0,0.0-19.0-1.0-18.0,,"[3446, 329, 786]",,,,,,,[],"['', 4, 8, 48, 48, -4, -8, -48, 24, 4, 8, 24, 24]",-5736556951088810154,training,18.0,57.0,"[None, None, None]","[4, 8, 48]","['1', '2', '3']","['up', 'up', 'right']","[4514, 5345, 6649]","{'click': {'state': {'target': ['3', '2', '1'], 'time': [2212, 3076, 3555]}, 'edge': {'target': [], 'time': []}}, 'mouseover': {'state': {'target': [], 'time': []}, 'edge': {'target': [], 'time': []}}, 'mouseout': {'state': {'target': [], 'time': []}, 'edge': {'target': [], 'time': []}}}",9.07,9937.0,1892,,QuestPilot1,,chrome,windows,UNKNOWN,0,0,irlexp7_2,2020-10-07,2020-10-07,2020-10-07,0.0,5,live,0,1,7,1,2020-10-07,0.002,2_4_24,312,False,"['#1b9e77', '#d95f02', '#7570b3']","['Green', 'Orange', 'Purple']",2.72,,,21.116666666666667,3,1,1,1,3
139,,mouselab-mdp,990450.0,0.0-19.0-1.0-19.0,,"[6632, 185, 166]",,,,,,,[],"['', 4, 8, 24, 24, -4, -4, -24, -48, 2, -4, 48, 48]",2060778120775651880,training,19.0,32.0,"[None, None, None]","[4, 8, 24]","['1', '2', '4']","['up', 'up', 'left']","[13309, 13996, 14684]","{'click': {'state': {'target': ['1', '2', '3', '4'], 'time': [7933, 8365, 9041, 9748]}, 'edge': {'target': [], 'time': []}}, 'mouseover': {'state': {'target': [], 'time': []}, 'edge': {'target': [], 'time': []}}, 'mouseout': {'state': {'target': [], 'time': []}, 'edge': {'target': [], 'time': []}}}",15.18,23462.0,1892,,QuestPilot1,,chrome,windows,UNKNOWN,0,0,irlexp7_2,2020-10-07,2020-10-07,2020-10-07,0.0,5,live,0,1,7,1,2020-10-07,0.002,2_4_24,312,False,"['#1b9e77', '#d95f02', '#7570b3']","['Green', 'Orange', 'Purple']",2.72,,,21.116666666666667,4,1,1,2,4
140,,mouselab-mdp,1000880.0,0.0-19.0-1.0-20.0,,"[3344, 295, 329]",,,,,,,[],"['', 2, -4, -24, -48, 4, -8, 48, -48, 2, -8, 48, -48]",2735284467270541771,test,20.0,40.0,"[None, None, None]","[4, -8, 48]","['5', '6', '7']","['right', 'right', 'up']","[4222, 5031, 5879]","{'click': {'state': {'target': ['5', '6', '7', '8'], 'time': [1680, 2076, 2532, 3227]}, 'edge': {'target': [], 'time': []}}, 'mouseover': {'state': {'target': [], 'time': []}, 'edge': {'target': [], 'time': []}}, 'mouseout': {'state': {'target': [], 'time': []}, 'edge': {'target': [], 'time': []}}}",8.88,9334.0,1892,,QuestPilot1,,chrome,windows,UNKNOWN,0,0,irlexp7_2,2020-10-07,2020-10-07,2020-10-07,0.0,5,live,0,1,7,1,2020-10-07,0.002,2_4_24,312,False,"['#1b9e77', '#d95f02', '#7570b3']","['Green', 'Orange', 'Purple']",2.72,,,21.116666666666667,4,1,1,2,4
141,,mouselab-mdp,1017848.0,0.0-19.0-1.0-21.0,,"[10769, 173, 771]",,,,,,,[],"['', 4, -8, -24, -24, -4, 8, -24, 24, -2, -8, -48, -48]",3457294074559537391,test,21.0,16.0,"[None, None, None]","[-4, 8, 24]","['5', '6', '8']","['right', 'right', 'down']","[12663, 13351, 14631]","{'click': {'state': {'target': ['5', '6', '7', '8', '9', '10', '11', '12', '1', '2', '3', '4'], 'time': [2907, 3277, 3924, 4706, 5793, 6529, 6962, 7585, 8598, 9100, 9497, 10166]}, 'edge': {'target': [], 'time': []}}, 'mouseover': {'state': {'target': [], 'time': []}, 'edge': {'target': [], 'time': []}}, 'mouseout': {'state': {'target': [], 'time': []}, 'edge': {'target': [], 'time': []}}}",15.13,15877.0,1892,,QuestPilot1,,chrome,windows,UNKNOWN,0,0,irlexp7_2,2020-10-07,2020-10-07,2020-10-07,0.0,5,live,0,1,7,1,2020-10-07,0.002,2_4_24,312,False,"['#1b9e77', '#d95f02', '#7570b3']","['Green', 'Orange', 'Purple']",2.72,,,21.116666666666667,12,3,3,6,12
142,,mouselab-mdp,1033296.0,0.0-19.0-1.0-22.0,,"[10019, 173, 194]",,,,,,,[],"['', -2, 8, 48, 24, -2, 4, -48, 48, 4, -8, -48, -48]",-7383638292178567401,test,22.0,42.0,"[None, None, None]","[-2, 8, 48]","['1', '2', '3']","['up', 'up', 'right']","[11718, 12430, 13119]","{'click': {'state': {'target': ['5', '6', '7', '8', '1', '2', '3', '4', '10', '9', '12', '11'], 'time': [2664, 3089, 3603, 4343, 5431, 5906, 6455, 6991, 8672, 8992, 9723, 10166]}, 'edge': {'target': [], 'time': []}}, 'mouseover': {'state': {'target': [], 'time': []}, 'edge': {'target': [], 'time': []}}, 'mouseout': {'state': {'target': [], 'time': []}, 'edge': {'target': [], 'time': []}}}",13.64,14340.0,1892,,QuestPilot1,,chrome,windows,UNKNOWN,0,0,irlexp7_2,2020-10-07,2020-10-07,2020-10-07,0.0,5,live,0,1,7,1,2020-10-07,0.002,2_4_24,312,False,"['#1b9e77', '#d95f02', '#7570b3']","['Green', 'Orange', 'Purple']",2.72,,,21.116666666666667,12,3,3,6,12
143,,mouselab-mdp,1047872.0,0.0-19.0-1.0-23.0,,"[4275, 150, 158]",,,,,,,[],"['', -2, 4, 24, 24, -4, 8, 48, 24, -4, 8, -48, -24]",-3127342074357004770,test,23.0,49.0,"[None, None, None]","[-4, 8, 48]","['5', '6', '7']","['right', 'right', 'up']","[8488, 9135, 9815]","{'click': {'state': {'target': ['7', '6', '5'], 'time': [5791, 6885, 7286]}, 'edge': {'target': [], 'time': []}}, 'mouseover': {'state': {'target': [], 'time': []}, 'edge': {'target': [], 'time': []}}, 'mouseout': {'state': {'target': [], 'time': []}, 'edge': {'target': [], 'time': []}}}",13.21,13494.0,1892,,QuestPilot1,,chrome,windows,UNKNOWN,0,0,irlexp7_2,2020-10-07,2020-10-07,2020-10-07,0.0,5,live,0,1,7,1,2020-10-07,0.002,2_4_24,312,False,"['#1b9e77', '#d95f02', '#7570b3']","['Green', 'Orange', 'Purple']",2.72,,,21.116666666666667,3,1,1,1,3
144,,mouselab-mdp,1058864.0,0.0-19.0-1.0-24.0,,"[4379, 146, 136]",,,,,,,[],"['', -2, 8, 24, 48, 2, -4, 48, -48, 2, 8, 24, -48]",4460497769895528113,test,24.0,51.0,"[None, None, None]","[-2, 8, 48]","['1', '2', '4']","['up', 'up', 'left']","[5169, 5817, 6473]","{'click': {'state': {'target': ['4', '2', '1'], 'time': [2339, 3403, 4008]}, 'edge': {'target': [], 'time': []}}, 'mouseover': {'state': {'target': [], 'time': []}, 'edge': {'target': [], 'time': []}}, 'mouseout': {'state': {'target': [], 'time': []}, 'edge': {'target': [], 'time': []}}}",8.79,9872.0,1892,,QuestPilot1,,chrome,windows,UNKNOWN,0,0,irlexp7_2,2020-10-07,2020-10-07,2020-10-07,0.0,5,live,0,1,7,1,2020-10-07,0.002,2_4_24,312,False,"['#1b9e77', '#d95f02', '#7570b3']","['Green', 'Orange', 'Purple']",2.72,,,21.116666666666667,3,1,1,1,3
145,,mouselab-mdp,1076118.0,0.0-19.0-1.0-25.0,,"[11721, 590, 248]",,,,,,,[],"['', -2, -8, -48, 24, -4, -4, -24, -48, 2, -8, 24, 24]",8324563381047186377,test,25.0,8.0,"[None, None, None]","[2, -8, 24]","['9', '10', '12']","['left', 'left', 'down']","[13288, 14383, 15159]","{'click': {'state': {'target': ['7', '8', '3', '4', '11', '10', '12', '9', '2', '1'], 'time': [2959, 3890, 4892, 5740, 6358, 6845, 7390, 7980, 8711, 9057]}, 'edge': {'target': [], 'time': []}}, 'mouseover': {'state': {'target': [], 'time': []}, 'edge': {'target': [], 'time': []}}, 'mouseout': {'state': {'target': [], 'time': []}, 'edge': {'target': [], 'time': []}}}",15.68,16118.0,1892,,QuestPilot1,,chrome,windows,UNKNOWN,0,0,irlexp7_2,2020-10-07,2020-10-07,2020-10-07,0.0,5,live,0,1,7,1,2020-10-07,0.002,2_4_24,312,False,"['#1b9e77', '#d95f02', '#7570b3']","['Green', 'Orange', 'Purple']",2.72,,,21.116666666666667,10,2,2,6,10
146,,mouselab-mdp,1089582.0,0.0-19.0-1.0-26.0,,"[8081, 354, 269]",,,,,,,[],"['', -2, 4, -48, -24, -4, -8, -48, -24, -2, 4, -24, 24]",4506983446382794552,test,26.0,14.0,"[None, None, None]","[-2, 4, 24]","['9', '10', '12']","['left', 'left', 'down']","[9778, 10642, 11426]","{'click': {'state': {'target': ['1', '2', '3', '5', '6', '8', '7', '11', '10', '12', '9', '4'], 'time': [2522, 2940, 3298, 4010, 4410, 4753, 5186, 6041, 6402, 6777, 7161, 8170]}, 'edge': {'target': [], 'time': []}}, 'mouseover': {'state': {'target': [], 'time': []}, 'edge': {'target': [], 'time': []}}, 'mouseout': {'state': {'target': [], 'time': []}, 'edge': {'target': [], 'time': []}}}",11.94,12361.0,1892,,QuestPilot1,,chrome,windows,UNKNOWN,0,0,irlexp7_2,2020-10-07,2020-10-07,2020-10-07,0.0,5,live,0,1,7,1,2020-10-07,0.002,2_4_24,312,False,"['#1b9e77', '#d95f02', '#7570b3']","['Green', 'Orange', 'Purple']",2.72,,,21.116666666666667,12,3,3,6,12
