,index,success,trial_type,time_elapsed,internal_node_id,view_history,rt,questions,responses,correct,name,reverse_coded,question_id,revealed_states,state_rewards,trial_id,block,trial_index,score,simulation_mode,rewards,path,actions,action_times,queries,displayed_time,trial_time,pid,button_pressed,run,stimulus,open_ended
225,16,,survey-multi-choice,207866.0,0.0-2.0,,165392.0,,Moderately,,STICSA_T,,sticsa_t.1,,,,,,3.0,,,,,,,,,1888,,QuestPilot1,,
226,16,,survey-multi-choice,207866.0,0.0-2.0,,165392.0,,A little,,STICSA_T,,sticsa_t.2,,,,,,2.0,,,,,,,,,1888,,QuestPilot1,,
227,16,,survey-multi-choice,207866.0,0.0-2.0,,165392.0,,Moderately,,STICSA_T,,sticsa_t.3,,,,,,3.0,,,,,,,,,1888,,QuestPilot1,,
228,16,,survey-multi-choice,207866.0,0.0-2.0,,165392.0,,Not at all,,STICSA_T,,sticsa_t.4,,,,,,1.0,,,,,,,,,1888,,QuestPilot1,,
229,16,,survey-multi-choice,207866.0,0.0-2.0,,165392.0,,Not at all,,STICSA_T,,sticsa_t.5,,,,,,1.0,,,,,,,,,1888,,QuestPilot1,,
230,16,,survey-multi-choice,207866.0,0.0-2.0,,165392.0,,Not at all,,STICSA_T,,sticsa_t.6,,,,,,1.0,,,,,,,,,1888,,QuestPilot1,,
231,16,,survey-multi-choice,207866.0,0.0-2.0,,165392.0,,A little,,STICSA_T,,sticsa_t.7,,,,,,2.0,,,,,,,,,1888,,QuestPilot1,,
232,16,,survey-multi-choice,207866.0,0.0-2.0,,165392.0,,Not at all,,STICSA_T,,sticsa_t.8,,,,,,1.0,,,,,,,,,1888,,QuestPilot1,,
233,16,,survey-multi-choice,207866.0,0.0-2.0,,165392.0,,Not at all,,STICSA_T,,sticsa_t.9,,,,,,1.0,,,,,,,,,1888,,QuestPilot1,,
234,16,,survey-multi-choice,207866.0,0.0-2.0,,165392.0,,A little,,STICSA_T,,sticsa_t.10,,,,,,2.0,,,,,,,,,1888,,QuestPilot1,,
235,16,,survey-multi-choice,207866.0,0.0-2.0,,165392.0,,A little,,STICSA_T,,sticsa_t.11,,,,,,2.0,,,,,,,,,1888,,QuestPilot1,,
236,16,,survey-multi-choice,207866.0,0.0-2.0,,165392.0,,Moderately,,STICSA_T,,sticsa_t.12,,,,,,3.0,,,,,,,,,1888,,QuestPilot1,,
237,16,,survey-multi-choice,207866.0,0.0-2.0,,165392.0,,A little,,STICSA_T,,sticsa_t.13,,,,,,2.0,,,,,,,,,1888,,QuestPilot1,,
238,16,,survey-multi-choice,207866.0,0.0-2.0,,165392.0,,Moderately,,STICSA_T,,sticsa_t.14,,,,,,3.0,,,,,,,,,1888,,QuestPilot1,,
239,16,,survey-multi-choice,207866.0,0.0-2.0,,165392.0,,A little,,STICSA_T,,sticsa_t.15,,,,,,2.0,,,,,,,,,1888,,QuestPilot1,,
240,16,,survey-multi-choice,207866.0,0.0-2.0,,165392.0,,A little,,STICSA_T,,sticsa_t.16,,,,,,2.0,,,,,,,,,1888,,QuestPilot1,,
241,16,,survey-multi-choice,207866.0,0.0-2.0,,165392.0,,Moderately,,STICSA_T,,sticsa_t.17,,,,,,3.0,,,,,,,,,1888,,QuestPilot1,,
242,16,,survey-multi-choice,207866.0,0.0-2.0,,165392.0,,Very much so,,STICSA_T,,sticsa_t.18,,,,,,4.0,,,,,,,,,1888,,QuestPilot1,,
243,16,,survey-multi-choice,207866.0,0.0-2.0,,165392.0,,A little,,STICSA_T,,sticsa_t.19,,,,,,2.0,,,,,,,,,1888,,QuestPilot1,,
244,16,,survey-multi-choice,207866.0,0.0-2.0,,165392.0,,Not at all,,STICSA_T,,sticsa_t.20,,,,,,1.0,,,,,,,,,1888,,QuestPilot1,,
245,16,,survey-multi-choice,207866.0,0.0-2.0,,165392.0,,A little,,STICSA_T,,sticsa_t.21,,,,,,2.0,,,,,,,,,1888,,QuestPilot1,,
246,17,,survey-multi-choice,295065.0,0.0-3.0,,86126.0,,Moderate,,LSAS_A,,leb.2,,,,,,2.0,,,,,,,,,1888,,QuestPilot1,,
247,17,,survey-multi-choice,295065.0,0.0-3.0,,86126.0,,Severe,,LSAS_A,,leb.3,,,,,,3.0,,,,,,,,,1888,,QuestPilot1,,
248,17,,survey-multi-choice,295065.0,0.0-3.0,,86126.0,,Severe,,LSAS_A,,leb.4,,,,,,3.0,,,,,,,,,1888,,QuestPilot1,,
249,17,,survey-multi-choice,295065.0,0.0-3.0,,86126.0,,Moderate,,LSAS_A,,leb.13,,,,,,2.0,,,,,,,,,1888,,QuestPilot1,,
250,17,,survey-multi-choice,295065.0,0.0-3.0,,86126.0,,Mild,,LSAS_A,,leb.14,,,,,,1.0,,,,,,,,,1888,,QuestPilot1,,
251,17,,survey-multi-choice,295065.0,0.0-3.0,,86126.0,,Moderate,,LSAS_A,,leb.15,,,,,,2.0,,,,,,,,,1888,,QuestPilot1,,
252,17,,survey-multi-choice,295065.0,0.0-3.0,,86126.0,,Mild,,LSAS_A,,leb.19,,,,,,1.0,,,,,,,,,1888,,QuestPilot1,,
253,17,,survey-multi-choice,295065.0,0.0-3.0,,86126.0,,Mild,,LSAS_A,,leb.21,,,,,,1.0,,,,,,,,,1888,,QuestPilot1,,
254,17,,survey-multi-choice,295065.0,0.0-3.0,,86126.0,,Moderate,,LSAS_A,,leb.22,,,,,,2.0,,,,,,,,,1888,,QuestPilot1,,
255,17,,survey-multi-choice,295065.0,0.0-3.0,,86126.0,,Severe,,LSAS_A,,leb.23,,,,,,3.0,,,,,,,,,1888,,QuestPilot1,,
256,17,,survey-multi-choice,295065.0,0.0-3.0,,86126.0,,None,,LSAS_A,,leb.24,,,,,,0.0,,,,,,,,,1888,,QuestPilot1,,
257,18,,survey-multi-choice,373629.0,0.0-4.0,,77492.0,,Often,,LSAS_B,,leb.27,,,,,,0.0,,,,,,,,,1888,,QuestPilot1,,
258,18,,survey-multi-choice,373629.0,0.0-4.0,,77492.0,,Occasionally,,LSAS_B,,leb.29,,,,,,0.0,,,,,,,,,1888,,QuestPilot1,,
259,18,,survey-multi-choice,373629.0,0.0-4.0,,77492.0,,Occasionally,,LSAS_B,,leb.30,,,,,,0.0,,,,,,,,,1888,,QuestPilot1,,
260,18,,survey-multi-choice,373629.0,0.0-4.0,,77492.0,,Usually,,LSAS_B,,leb.31,,,,,,0.0,,,,,,,,,1888,,QuestPilot1,,
261,18,,survey-multi-choice,373629.0,0.0-4.0,,77492.0,,Occasionally,,LSAS_B,,leb.32,,,,,,0.0,,,,,,,,,1888,,QuestPilot1,,
262,18,,survey-multi-choice,373629.0,0.0-4.0,,77492.0,,Usually,,LSAS_B,,leb.35,,,,,,0.0,,,,,,,,,1888,,QuestPilot1,,
263,18,,survey-multi-choice,373629.0,0.0-4.0,,77492.0,,Usually,,LSAS_B,,leb.39,,,,,,0.0,,,,,,,,,1888,,QuestPilot1,,
264,18,,survey-multi-choice,373629.0,0.0-4.0,,77492.0,,Often,,LSAS_B,,leb.40,,,,,,0.0,,,,,,,,,1888,,QuestPilot1,,
265,18,,survey-multi-choice,373629.0,0.0-4.0,,77492.0,,Usually,,LSAS_B,,leb.45,,,,,,0.0,,,,,,,,,1888,,QuestPilot1,,
266,18,,survey-multi-choice,373629.0,0.0-4.0,,77492.0,,Often,,LSAS_B,,leb.46,,,,,,0.0,,,,,,,,,1888,,QuestPilot1,,
267,18,,survey-multi-choice,373629.0,0.0-4.0,,77492.0,,Never,,LSAS_B,,leb.48,,,,,,0.0,,,,,,,,,1888,,QuestPilot1,,
268,19,,survey-multi-choice,564126.0,0.0-5.0,,189359.0,,Moderately,,STICSA_S,,sticsa_s.1,,,,,,3.0,,,,,,,,,1888,,QuestPilot1,,
269,19,,survey-multi-choice,564126.0,0.0-5.0,,189359.0,,A little,,STICSA_S,,sticsa_s.2,,,,,,2.0,,,,,,,,,1888,,QuestPilot1,,
270,19,,survey-multi-choice,564126.0,0.0-5.0,,189359.0,,A little,,STICSA_S,,sticsa_s.3,,,,,,2.0,,,,,,,,,1888,,QuestPilot1,,
271,19,,survey-multi-choice,564126.0,0.0-5.0,,189359.0,,Not at all,,STICSA_S,,sticsa_s.4,,,,,,1.0,,,,,,,,,1888,,QuestPilot1,,
272,19,,survey-multi-choice,564126.0,0.0-5.0,,189359.0,,A little,,STICSA_S,,sticsa_s.5,,,,,,2.0,,,,,,,,,1888,,QuestPilot1,,
273,19,,survey-multi-choice,564126.0,0.0-5.0,,189359.0,,Not at all,,STICSA_S,,sticsa_s.6,,,,,,1.0,,,,,,,,,1888,,QuestPilot1,,
274,19,,survey-multi-choice,564126.0,0.0-5.0,,189359.0,,A little,,STICSA_S,,sticsa_s.7,,,,,,2.0,,,,,,,,,1888,,QuestPilot1,,
275,19,,survey-multi-choice,564126.0,0.0-5.0,,189359.0,,Not at all,,STICSA_S,,sticsa_s.8,,,,,,1.0,,,,,,,,,1888,,QuestPilot1,,
276,19,,survey-multi-choice,564126.0,0.0-5.0,,189359.0,,A little,,STICSA_S,,sticsa_s.9,,,,,,2.0,,,,,,,,,1888,,QuestPilot1,,
277,19,,survey-multi-choice,564126.0,0.0-5.0,,189359.0,,Not at all,,STICSA_S,,sticsa_s.10,,,,,,1.0,,,,,,,,,1888,,QuestPilot1,,
278,19,,survey-multi-choice,564126.0,0.0-5.0,,189359.0,,A little,,STICSA_S,,sticsa_s.11,,,,,,2.0,,,,,,,,,1888,,QuestPilot1,,
279,19,,survey-multi-choice,564126.0,0.0-5.0,,189359.0,,Moderately,,STICSA_S,,sticsa_s.12,,,,,,3.0,,,,,,,,,1888,,QuestPilot1,,
280,19,,survey-multi-choice,564126.0,0.0-5.0,,189359.0,,A little,,STICSA_S,,sticsa_s.13,,,,,,2.0,,,,,,,,,1888,,QuestPilot1,,
281,19,,survey-multi-choice,564126.0,0.0-5.0,,189359.0,,Moderately,,STICSA_S,,sticsa_s.14,,,,,,3.0,,,,,,,,,1888,,QuestPilot1,,
282,19,,survey-multi-choice,564126.0,0.0-5.0,,189359.0,,A little,,STICSA_S,,sticsa_s.15,,,,,,2.0,,,,,,,,,1888,,QuestPilot1,,
283,19,,survey-multi-choice,564126.0,0.0-5.0,,189359.0,,A little,,STICSA_S,,sticsa_s.16,,,,,,2.0,,,,,,,,,1888,,QuestPilot1,,
284,19,,survey-multi-choice,564126.0,0.0-5.0,,189359.0,,Not at all,,STICSA_S,,sticsa_s.17,,,,,,1.0,,,,,,,,,1888,,QuestPilot1,,
285,19,,survey-multi-choice,564126.0,0.0-5.0,,189359.0,,Very much so,,STICSA_S,,sticsa_s.18,,,,,,4.0,,,,,,,,,1888,,QuestPilot1,,
286,19,,survey-multi-choice,564126.0,0.0-5.0,,189359.0,,Moderately,,STICSA_S,,sticsa_s.19,,,,,,3.0,,,,,,,,,1888,,QuestPilot1,,
287,19,,survey-multi-choice,564126.0,0.0-5.0,,189359.0,,Not at all,,STICSA_S,,sticsa_s.20,,,,,,1.0,,,,,,,,,1888,,QuestPilot1,,
288,19,,survey-multi-choice,564126.0,0.0-5.0,,189359.0,,A little,,STICSA_S,,sticsa_s.21,,,,,,2.0,,,,,,,,,1888,,QuestPilot1,,
289,20,,survey-multi-choice,588346.0,0.0-6.0,,23207.0,,2-3 times a week,,AUDIT,,alcohol.1,,,,,,0.0,,,,,,,,,1888,,QuestPilot1,,
290,21,,survey-multi-choice,630929.0,0.0-7.0,,41535.0,,A lot,,AES,,apathy.2,,,,,,4.0,,,,,,,,,1888,,QuestPilot1,,
291,21,,survey-multi-choice,630929.0,0.0-7.0,,41535.0,,Somewhat,,AES,,apathy.7,,,,,,3.0,,,,,,,,,1888,,QuestPilot1,,
292,21,,survey-multi-choice,630929.0,0.0-7.0,,41535.0,,A lot,,AES,,apathy.17,,,,,,4.0,,,,,,,,,1888,,QuestPilot1,,
293,21,,survey-multi-choice,630929.0,0.0-7.0,,41535.0,,Somewhat,,AES,,apathy.18,,,,,,3.0,,,,,,,,,1888,,QuestPilot1,,
294,22,,survey-multi-choice,685323.0,0.0-8.0,,53351.0,,Sometimes,,EAT,,eat.1,,,,,,0.0,,,,,,,,,1888,,QuestPilot1,,
295,22,,survey-multi-choice,685323.0,0.0-8.0,,53351.0,,Always,,EAT,,eat.11,,,,,,3.0,,,,,,,,,1888,,QuestPilot1,,
296,22,,survey-multi-choice,685323.0,0.0-8.0,,53351.0,,Usually,,EAT,,eat.12,,,,,,2.0,,,,,,,,,1888,,QuestPilot1,,
297,22,,survey-multi-choice,685323.0,0.0-8.0,,53351.0,,Rarely,,EAT,,eat.14,,,,,,0.0,,,,,,,,,1888,,QuestPilot1,,
298,23,,survey-multi-choice,807811.0,0.0-9.0,,121363.0,,Entirely characteristic of me,,IUS_12,,ius.1,,,,,,5.0,,,,,,,,,1888,,QuestPilot1,,
299,23,,survey-multi-choice,807811.0,0.0-9.0,,121363.0,,Somewhat characteristic of me,,IUS_12,,ius.2,,,,,,3.0,,,,,,,,,1888,,QuestPilot1,,
300,23,,survey-multi-choice,807811.0,0.0-9.0,,121363.0,,A little characteristic of me,,IUS_12,,ius.3,,,,,,2.0,,,,,,,,,1888,,QuestPilot1,,
301,23,,survey-multi-choice,807811.0,0.0-9.0,,121363.0,,Entirely characteristic of me,,IUS_12,,ius.4,,,,,,5.0,,,,,,,,,1888,,QuestPilot1,,
302,23,,survey-multi-choice,807811.0,0.0-9.0,,121363.0,,A little characteristic of me,,IUS_12,,ius.5,,,,,,2.0,,,,,,,,,1888,,QuestPilot1,,
303,23,,survey-multi-choice,807811.0,0.0-9.0,,121363.0,,Not at all characteristic of me,,IUS_12,,ius.6,,,,,,1.0,,,,,,,,,1888,,QuestPilot1,,
304,23,,survey-multi-choice,807811.0,0.0-9.0,,121363.0,,A little characteristic of me,,IUS_12,,ius.7,,,,,,2.0,,,,,,,,,1888,,QuestPilot1,,
305,23,,survey-multi-choice,807811.0,0.0-9.0,,121363.0,,Entirely characteristic of me,,IUS_12,,ius.8,,,,,,5.0,,,,,,,,,1888,,QuestPilot1,,
306,23,,survey-multi-choice,807811.0,0.0-9.0,,121363.0,,Somewhat characteristic of me,,IUS_12,,ius.9,,,,,,3.0,,,,,,,,,1888,,QuestPilot1,,
307,23,,survey-multi-choice,807811.0,0.0-9.0,,121363.0,,Very characteristic of me,,IUS_12,,ius.10,,,,,,4.0,,,,,,,,,1888,,QuestPilot1,,
308,23,,survey-multi-choice,807811.0,0.0-9.0,,121363.0,,Entirely characteristic of me,,IUS_12,,ius.11,,,,,,5.0,,,,,,,,,1888,,QuestPilot1,,
309,23,,survey-multi-choice,807811.0,0.0-9.0,,121363.0,,Entirely characteristic of me,,IUS_12,,ius.12,,,,,,5.0,,,,,,,,,1888,,QuestPilot1,,
310,24,,survey-multi-choice,913172.0,0.0-10.0,,104248.0,,Almost always,,STAI,,anxiety.1,,,,,,4.0,,,,,,,,,1888,,QuestPilot1,,
311,24,,survey-multi-choice,913172.0,0.0-10.0,,104248.0,,Often,,STAI,,anxiety.3,,,,,,3.0,,,,,,,,,1888,,QuestPilot1,,
312,24,,survey-multi-choice,913172.0,0.0-10.0,,104248.0,,Sometimes,,STAI,,anxiety.5,,,,,,2.0,,,,,,,,,1888,,QuestPilot1,,
313,24,,survey-multi-choice,913172.0,0.0-10.0,,104248.0,,Sometimes,,STAI,,anxiety.8,,,,,,2.0,,,,,,,,,1888,,QuestPilot1,,
314,24,,survey-multi-choice,913172.0,0.0-10.0,,104248.0,,Sometimes,,STAI,,anxiety.9,,,,,,2.0,,,,,,,,,1888,,QuestPilot1,,
315,24,,survey-multi-choice,913172.0,0.0-10.0,,104248.0,,Almost always,,STAI,,anxiety.10,,,,,,4.0,,,,,,,,,1888,,QuestPilot1,,
316,24,,survey-multi-choice,913172.0,0.0-10.0,,104248.0,,Almost never,,STAI,,anxiety.12,,,,,,1.0,,,,,,,,,1888,,QuestPilot1,,
317,24,,survey-multi-choice,913172.0,0.0-10.0,,104248.0,,Almost always,,STAI,,anxiety.13,,,,,,4.0,,,,,,,,,1888,,QuestPilot1,,
318,24,,survey-multi-choice,913172.0,0.0-10.0,,104248.0,,Often,,STAI,,anxiety.16,,,,,,3.0,,,,,,,,,1888,,QuestPilot1,,
319,24,,survey-multi-choice,913172.0,0.0-10.0,,104248.0,,Almost always,,STAI,,anxiety.19,,,,,,4.0,,,,,,,,,1888,,QuestPilot1,,
320,24,,survey-multi-choice,913172.0,0.0-10.0,,104248.0,,Sometimes,,STAI,,anxiety.20,,,,,,2.0,,,,,,,,,1888,,QuestPilot1,,
321,25,,survey-multi-choice,994181.0,0.0-11.0,,79930.0,,Almost always/Always,,BIS,,bis.1,,,,,,4.0,,,,,,,,,1888,,QuestPilot1,,
322,25,,survey-multi-choice,994181.0,0.0-11.0,,79930.0,,Often,,BIS,,bis.6,,,,,,3.0,,,,,,,,,1888,,QuestPilot1,,
323,25,,survey-multi-choice,994181.0,0.0-11.0,,79930.0,,Almost always/Always,,BIS,,bis.9,,,,,,4.0,,,,,,,,,1888,,QuestPilot1,,
324,25,,survey-multi-choice,994181.0,0.0-11.0,,79930.0,,Almost always/Always,,BIS,,bis.13,,,,,,4.0,,,,,,,,,1888,,QuestPilot1,,
325,25,,survey-multi-choice,994181.0,0.0-11.0,,79930.0,,Occasionally,,BIS,,bis.14,,,,,,2.0,,,,,,,,,1888,,QuestPilot1,,
326,25,,survey-multi-choice,994181.0,0.0-11.0,,79930.0,,Almost always/Always,,BIS,,bis.15,,,,,,4.0,,,,,,,,,1888,,QuestPilot1,,
327,25,,survey-multi-choice,994181.0,0.0-11.0,,79930.0,,Occasionally,,BIS,,bis.17,,,,,,2.0,,,,,,,,,1888,,QuestPilot1,,
328,25,,survey-multi-choice,994181.0,0.0-11.0,,79930.0,,Almost always/Always,,BIS,,bis.20,,,,,,4.0,,,,,,,,,1888,,QuestPilot1,,
329,25,,survey-multi-choice,994181.0,0.0-11.0,,79930.0,,Often,,BIS,,bis.22,,,,,,3.0,,,,,,,,,1888,,QuestPilot1,,
330,25,,survey-multi-choice,994181.0,0.0-11.0,,79930.0,,Occasionally,,BIS,,bis.25,,,,,,2.0,,,,,,,,,1888,,QuestPilot1,,
331,25,,survey-multi-choice,994181.0,0.0-11.0,,79930.0,,Almost always/Always,,BIS,,bis.26,,,,,,4.0,,,,,,,,,1888,,QuestPilot1,,
332,26,,survey-multi-choice,1050285.0,0.0-12.0,,55051.0,,Most of the time,,Zhung,,zung.11,,,,,,4.0,,,,,,,,,1888,,QuestPilot1,,
333,26,,survey-multi-choice,1050285.0,0.0-12.0,,55051.0,,Most of the time,,Zhung,,zung.12,,,,,,4.0,,,,,,,,,1888,,QuestPilot1,,
334,26,,survey-multi-choice,1050285.0,0.0-12.0,,55051.0,,A little of the time,,Zhung,,zung.13,,,,,,1.0,,,,,,,,,1888,,QuestPilot1,,
335,26,,survey-multi-choice,1050285.0,0.0-12.0,,55051.0,,Most of the time,,Zhung,,zung.14,,,,,,4.0,,,,,,,,,1888,,QuestPilot1,,
336,26,,survey-multi-choice,1050285.0,0.0-12.0,,55051.0,,Most of the time,,Zhung,,zung.16,,,,,,4.0,,,,,,,,,1888,,QuestPilot1,,
337,26,,survey-multi-choice,1050285.0,0.0-12.0,,55051.0,,Most of the time,,Zhung,,zung.17,,,,,,4.0,,,,,,,,,1888,,QuestPilot1,,
338,26,,survey-multi-choice,1050285.0,0.0-12.0,,55051.0,,Most of the time,,Zhung,,zung.18,,,,,,4.0,,,,,,,,,1888,,QuestPilot1,,
339,26,,survey-multi-choice,1050285.0,0.0-12.0,,55051.0,,Most of the time,,Zhung,,zung.20,,,,,,4.0,,,,,,,,,1888,,QuestPilot1,,
340,27,,survey-multi-choice,1167821.0,0.0-13.0,,116384.0,,Extremely,,OCIR,,ocir.1,,,,,,4.0,,,,,,,,,1888,,QuestPilot1,,
341,27,,survey-multi-choice,1167821.0,0.0-13.0,,116384.0,,Extremely,,OCIR,,ocir.2,,,,,,4.0,,,,,,,,,1888,,QuestPilot1,,
342,27,,survey-multi-choice,1167821.0,0.0-13.0,,116384.0,,Moderately,,OCIR,,ocir.4,,,,,,2.0,,,,,,,,,1888,,QuestPilot1,,
343,27,,survey-multi-choice,1167821.0,0.0-13.0,,116384.0,,A little,,OCIR,,ocir.6,,,,,,1.0,,,,,,,,,1888,,QuestPilot1,,
344,27,,survey-multi-choice,1167821.0,0.0-13.0,,116384.0,,A lot,,OCIR,,ocir.7,,,,,,3.0,,,,,,,,,1888,,QuestPilot1,,
345,27,,survey-multi-choice,1167821.0,0.0-13.0,,116384.0,,Extremely,,OCIR,,ocir.9,,,,,,4.0,,,,,,,,,1888,,QuestPilot1,,
346,27,,survey-multi-choice,1167821.0,0.0-13.0,,116384.0,,Extremely,,OCIR,,ocir.11,,,,,,4.0,,,,,,,,,1888,,QuestPilot1,,
347,27,,survey-multi-choice,1167821.0,0.0-13.0,,116384.0,,Moderately,,OCIR,,ocir.12,,,,,,2.0,,,,,,,,,1888,,QuestPilot1,,
348,27,,survey-multi-choice,1167821.0,0.0-13.0,,116384.0,,A lot,,OCIR,,ocir.13,,,,,,3.0,,,,,,,,,1888,,QuestPilot1,,
349,27,,survey-multi-choice,1167821.0,0.0-13.0,,116384.0,,Moderately,,OCIR,,ocir.16,,,,,,2.0,,,,,,,,,1888,,QuestPilot1,,
350,27,,survey-multi-choice,1167821.0,0.0-13.0,,116384.0,,A little,,OCIR,,ocir.18,,,,,,1.0,,,,,,,,,1888,,QuestPilot1,,
351,28,,survey-multi-choice,1311186.0,0.0-14.0,,142124.0,,smaller reward today,,MCQ,,mcq.1,,,,,,0.0,,,,,,,,,1888,,QuestPilot1,,
352,28,,survey-multi-choice,1311186.0,0.0-14.0,,142124.0,,larger reward in the specified number of days,,MCQ,,mcq.2,,,,,,0.0,,,,,,,,,1888,,QuestPilot1,,
353,28,,survey-multi-choice,1311186.0,0.0-14.0,,142124.0,,smaller reward today,,MCQ,,mcq.3,,,,,,0.0,,,,,,,,,1888,,QuestPilot1,,
354,28,,survey-multi-choice,1311186.0,0.0-14.0,,142124.0,,larger reward in the specified number of days,,MCQ,,mcq.4,,,,,,0.0,,,,,,,,,1888,,QuestPilot1,,
355,28,,survey-multi-choice,1311186.0,0.0-14.0,,142124.0,,larger reward in the specified number of days,,MCQ,,mcq.5,,,,,,0.0,,,,,,,,,1888,,QuestPilot1,,
356,28,,survey-multi-choice,1311186.0,0.0-14.0,,142124.0,,smaller reward today,,MCQ,,mcq.6,,,,,,0.0,,,,,,,,,1888,,QuestPilot1,,
357,28,,survey-multi-choice,1311186.0,0.0-14.0,,142124.0,,larger reward in the specified number of days,,MCQ,,mcq.7,,,,,,0.0,,,,,,,,,1888,,QuestPilot1,,
358,28,,survey-multi-choice,1311186.0,0.0-14.0,,142124.0,,smaller reward today,,MCQ,,mcq.8,,,,,,0.0,,,,,,,,,1888,,QuestPilot1,,
359,28,,survey-multi-choice,1311186.0,0.0-14.0,,142124.0,,smaller reward today,,MCQ,,mcq.9,,,,,,0.0,,,,,,,,,1888,,QuestPilot1,,
360,28,,survey-multi-choice,1311186.0,0.0-14.0,,142124.0,,larger reward in the specified number of days,,MCQ,,mcq.10,,,,,,0.0,,,,,,,,,1888,,QuestPilot1,,
361,28,,survey-multi-choice,1311186.0,0.0-14.0,,142124.0,,smaller reward today,,MCQ,,mcq.11,,,,,,0.0,,,,,,,,,1888,,QuestPilot1,,
362,28,,survey-multi-choice,1311186.0,0.0-14.0,,142124.0,,larger reward in the specified number of days,,MCQ,,mcq.12,,,,,,0.0,,,,,,,,,1888,,QuestPilot1,,
363,28,,survey-multi-choice,1311186.0,0.0-14.0,,142124.0,,smaller reward today,,MCQ,,mcq.13,,,,,,0.0,,,,,,,,,1888,,QuestPilot1,,
364,28,,survey-multi-choice,1311186.0,0.0-14.0,,142124.0,,larger reward in the specified number of days,,MCQ,,mcq.14,,,,,,0.0,,,,,,,,,1888,,QuestPilot1,,
365,28,,survey-multi-choice,1311186.0,0.0-14.0,,142124.0,,larger reward in the specified number of days,,MCQ,,mcq.15,,,,,,0.0,,,,,,,,,1888,,QuestPilot1,,
366,28,,survey-multi-choice,1311186.0,0.0-14.0,,142124.0,,smaller reward today,,MCQ,,mcq.16,,,,,,0.0,,,,,,,,,1888,,QuestPilot1,,
367,28,,survey-multi-choice,1311186.0,0.0-14.0,,142124.0,,larger reward in the specified number of days,,MCQ,,mcq.17,,,,,,0.0,,,,,,,,,1888,,QuestPilot1,,
368,28,,survey-multi-choice,1311186.0,0.0-14.0,,142124.0,,smaller reward today,,MCQ,,mcq.18,,,,,,0.0,,,,,,,,,1888,,QuestPilot1,,
369,28,,survey-multi-choice,1311186.0,0.0-14.0,,142124.0,,larger reward in the specified number of days,,MCQ,,mcq.19,,,,,,0.0,,,,,,,,,1888,,QuestPilot1,,
370,28,,survey-multi-choice,1311186.0,0.0-14.0,,142124.0,,smaller reward today,,MCQ,,mcq.20,,,,,,0.0,,,,,,,,,1888,,QuestPilot1,,
371,28,,survey-multi-choice,1311186.0,0.0-14.0,,142124.0,,larger reward in the specified number of days,,MCQ,,mcq.21,,,,,,0.0,,,,,,,,,1888,,QuestPilot1,,
372,28,,survey-multi-choice,1311186.0,0.0-14.0,,142124.0,,smaller reward today,,MCQ,,mcq.22,,,,,,0.0,,,,,,,,,1888,,QuestPilot1,,
373,28,,survey-multi-choice,1311186.0,0.0-14.0,,142124.0,,larger reward in the specified number of days,,MCQ,,mcq.23,,,,,,0.0,,,,,,,,,1888,,QuestPilot1,,
374,28,,survey-multi-choice,1311186.0,0.0-14.0,,142124.0,,smaller reward today,,MCQ,,mcq.24,,,,,,0.0,,,,,,,,,1888,,QuestPilot1,,
375,28,,survey-multi-choice,1311186.0,0.0-14.0,,142124.0,,larger reward in the specified number of days,,MCQ,,mcq.25,,,,,,0.0,,,,,,,,,1888,,QuestPilot1,,
376,28,,survey-multi-choice,1311186.0,0.0-14.0,,142124.0,,smaller reward today,,MCQ,,mcq.26,,,,,,0.0,,,,,,,,,1888,,QuestPilot1,,
377,28,,survey-multi-choice,1311186.0,0.0-14.0,,142124.0,,larger reward in the specified number of days,,MCQ,,mcq.27,,,,,,0.0,,,,,,,,,1888,,QuestPilot1,,
378,29,,survey-multi-choice,1443941.0,0.0-15.0,,131626.0,,Uncertain,,CFC,,cfc.1,,,,,,3.0,,,,,,,,,1888,,QuestPilot1,,
379,29,,survey-multi-choice,1443941.0,0.0-15.0,,131626.0,,Somewhat characteristic,,CFC,,cfc.2,,,,,,4.0,,,,,,,,,1888,,QuestPilot1,,
380,29,,survey-multi-choice,1443941.0,0.0-15.0,,131626.0,,Extremely characteristic,,CFC,,cfc.3,,,,,,5.0,,,,,,,,,1888,,QuestPilot1,,
381,29,,survey-multi-choice,1443941.0,0.0-15.0,,131626.0,,Somewhat characteristic,,CFC,,cfc.4,,,,,,4.0,,,,,,,,,1888,,QuestPilot1,,
382,29,,survey-multi-choice,1443941.0,0.0-15.0,,131626.0,,Extremely characteristic,,CFC,,cfc.5,,,,,,5.0,,,,,,,,,1888,,QuestPilot1,,
383,29,,survey-multi-choice,1443941.0,0.0-15.0,,131626.0,,Somewhat characteristic,,CFC,,cfc.6,,,,,,4.0,,,,,,,,,1888,,QuestPilot1,,
384,29,,survey-multi-choice,1443941.0,0.0-15.0,,131626.0,,Extremely characteristic,,CFC,,cfc.7,,,,,,5.0,,,,,,,,,1888,,QuestPilot1,,
385,29,,survey-multi-choice,1443941.0,0.0-15.0,,131626.0,,Somewhat characteristic,,CFC,,cfc.8,,,,,,4.0,,,,,,,,,1888,,QuestPilot1,,
386,29,,survey-multi-choice,1443941.0,0.0-15.0,,131626.0,,Somewhat characteristic,,CFC,,cfc.9,,,,,,4.0,,,,,,,,,1888,,QuestPilot1,,
387,29,,survey-multi-choice,1443941.0,0.0-15.0,,131626.0,,Uncertain,,CFC,,cfc.10,,,,,,3.0,,,,,,,,,1888,,QuestPilot1,,
388,29,,survey-multi-choice,1443941.0,0.0-15.0,,131626.0,,Somewhat characteristic,,CFC,,cfc.11,,,,,,4.0,,,,,,,,,1888,,QuestPilot1,,
389,29,,survey-multi-choice,1443941.0,0.0-15.0,,131626.0,,Extremely characteristic,,CFC,,cfc.12,,,,,,5.0,,,,,,,,,1888,,QuestPilot1,,
390,30,,survey-multi-choice,2038519.0,0.0-16.0,,592769.0,,Agree Some,,UPPS-P,,uppsp.1,,,,,,2.0,,,,,,,,,1888,,QuestPilot1,,
391,30,,survey-multi-choice,2038519.0,0.0-16.0,,592769.0,,Disagree Some,,UPPS-P,,uppsp.2,,,,,,3.0,,,,,,,,,1888,,QuestPilot1,,
392,30,,survey-multi-choice,2038519.0,0.0-16.0,,592769.0,,Agree Strongly,,UPPS-P,,uppsp.3,,,,,,1.0,,,,,,,,,1888,,QuestPilot1,,
393,30,,survey-multi-choice,2038519.0,0.0-16.0,,592769.0,,Agree Strongly,,UPPS-P,,uppsp.4,,,,,,1.0,,,,,,,,,1888,,QuestPilot1,,
394,30,,survey-multi-choice,2038519.0,0.0-16.0,,592769.0,,Disagree Some,,UPPS-P,,uppsp.5,,,,,,3.0,,,,,,,,,1888,,QuestPilot1,,
395,30,,survey-multi-choice,2038519.0,0.0-16.0,,592769.0,,Agree Strongly,,UPPS-P,,uppsp.6,,,,,,1.0,,,,,,,,,1888,,QuestPilot1,,
396,30,,survey-multi-choice,2038519.0,0.0-16.0,,592769.0,,Agree Some,,UPPS-P,,uppsp.7,,,,,,2.0,,,,,,,,,1888,,QuestPilot1,,
397,30,,survey-multi-choice,2038519.0,0.0-16.0,,592769.0,,Agree Strongly,,UPPS-P,,uppsp.8,,,,,,1.0,,,,,,,,,1888,,QuestPilot1,,
398,30,,survey-multi-choice,2038519.0,0.0-16.0,,592769.0,,Disagree Some,,UPPS-P,,uppsp.9,,,,,,3.0,,,,,,,,,1888,,QuestPilot1,,
399,30,,survey-multi-choice,2038519.0,0.0-16.0,,592769.0,,Agree Some,,UPPS-P,,uppsp.10,,,,,,2.0,,,,,,,,,1888,,QuestPilot1,,
400,30,,survey-multi-choice,2038519.0,0.0-16.0,,592769.0,,Agree Strongly,,UPPS-P,,uppsp.11,,,,,,1.0,,,,,,,,,1888,,QuestPilot1,,
401,30,,survey-multi-choice,2038519.0,0.0-16.0,,592769.0,,Agree Some,,UPPS-P,,uppsp.12,,,,,,2.0,,,,,,,,,1888,,QuestPilot1,,
402,30,,survey-multi-choice,2038519.0,0.0-16.0,,592769.0,,Agree Strongly,,UPPS-P,,uppsp.13,,,,,,1.0,,,,,,,,,1888,,QuestPilot1,,
403,30,,survey-multi-choice,2038519.0,0.0-16.0,,592769.0,,Disagree Some,,UPPS-P,,uppsp.14,,,,,,3.0,,,,,,,,,1888,,QuestPilot1,,
404,30,,survey-multi-choice,2038519.0,0.0-16.0,,592769.0,,Disagree Some,,UPPS-P,,uppsp.15,,,,,,3.0,,,,,,,,,1888,,QuestPilot1,,
405,30,,survey-multi-choice,2038519.0,0.0-16.0,,592769.0,,Agree Strongly,,UPPS-P,,uppsp.16,,,,,,1.0,,,,,,,,,1888,,QuestPilot1,,
406,30,,survey-multi-choice,2038519.0,0.0-16.0,,592769.0,,Disagree Some,,UPPS-P,,uppsp.17,,,,,,3.0,,,,,,,,,1888,,QuestPilot1,,
407,30,,survey-multi-choice,2038519.0,0.0-16.0,,592769.0,,Disagree Some,,UPPS-P,,uppsp.18,,,,,,3.0,,,,,,,,,1888,,QuestPilot1,,
408,30,,survey-multi-choice,2038519.0,0.0-16.0,,592769.0,,Disagree Strongly,,UPPS-P,,uppsp.19,,,,,,4.0,,,,,,,,,1888,,QuestPilot1,,
409,30,,survey-multi-choice,2038519.0,0.0-16.0,,592769.0,,Agree Some,,UPPS-P,,uppsp.20,,,,,,2.0,,,,,,,,,1888,,QuestPilot1,,
410,30,,survey-multi-choice,2038519.0,0.0-16.0,,592769.0,,Agree Strongly,,UPPS-P,,uppsp.21,,,,,,1.0,,,,,,,,,1888,,QuestPilot1,,
411,30,,survey-multi-choice,2038519.0,0.0-16.0,,592769.0,,Disagree Some,,UPPS-P,,uppsp.22,,,,,,3.0,,,,,,,,,1888,,QuestPilot1,,
412,30,,survey-multi-choice,2038519.0,0.0-16.0,,592769.0,,Agree Strongly,,UPPS-P,,uppsp.23,,,,,,1.0,,,,,,,,,1888,,QuestPilot1,,
413,30,,survey-multi-choice,2038519.0,0.0-16.0,,592769.0,,Agree Strongly,,UPPS-P,,uppsp.24,,,,,,1.0,,,,,,,,,1888,,QuestPilot1,,
414,30,,survey-multi-choice,2038519.0,0.0-16.0,,592769.0,,Agree Some,,UPPS-P,,uppsp.25,,,,,,2.0,,,,,,,,,1888,,QuestPilot1,,
415,30,,survey-multi-choice,2038519.0,0.0-16.0,,592769.0,,Agree Strongly,,UPPS-P,,uppsp.26,,,,,,1.0,,,,,,,,,1888,,QuestPilot1,,
416,30,,survey-multi-choice,2038519.0,0.0-16.0,,592769.0,,Agree Strongly,,UPPS-P,,uppsp.27,,,,,,1.0,,,,,,,,,1888,,QuestPilot1,,
417,30,,survey-multi-choice,2038519.0,0.0-16.0,,592769.0,,Agree Strongly,,UPPS-P,,uppsp.28,,,,,,1.0,,,,,,,,,1888,,QuestPilot1,,
418,30,,survey-multi-choice,2038519.0,0.0-16.0,,592769.0,,Disagree Some,,UPPS-P,,uppsp.29,,,,,,3.0,,,,,,,,,1888,,QuestPilot1,,
419,30,,survey-multi-choice,2038519.0,0.0-16.0,,592769.0,,Agree Strongly,,UPPS-P,,catch.2,,,,,,0.0,,,,,,,,,1888,,QuestPilot1,,
420,30,,survey-multi-choice,2038519.0,0.0-16.0,,592769.0,,Agree Strongly,,UPPS-P,,uppsp.30,,,,,,1.0,,,,,,,,,1888,,QuestPilot1,,
421,30,,survey-multi-choice,2038519.0,0.0-16.0,,592769.0,,Agree Strongly,,UPPS-P,,uppsp.31,,,,,,1.0,,,,,,,,,1888,,QuestPilot1,,
422,30,,survey-multi-choice,2038519.0,0.0-16.0,,592769.0,,Disagree Some,,UPPS-P,,uppsp.32,,,,,,3.0,,,,,,,,,1888,,QuestPilot1,,
423,30,,survey-multi-choice,2038519.0,0.0-16.0,,592769.0,,Agree Strongly,,UPPS-P,,uppsp.33,,,,,,1.0,,,,,,,,,1888,,QuestPilot1,,
424,30,,survey-multi-choice,2038519.0,0.0-16.0,,592769.0,,Agree Strongly,,UPPS-P,,uppsp.34,,,,,,1.0,,,,,,,,,1888,,QuestPilot1,,
425,30,,survey-multi-choice,2038519.0,0.0-16.0,,592769.0,,Disagree Some,,UPPS-P,,uppsp.35,,,,,,3.0,,,,,,,,,1888,,QuestPilot1,,
426,30,,survey-multi-choice,2038519.0,0.0-16.0,,592769.0,,Agree Strongly,,UPPS-P,,uppsp.36,,,,,,1.0,,,,,,,,,1888,,QuestPilot1,,
427,30,,survey-multi-choice,2038519.0,0.0-16.0,,592769.0,,Agree Strongly,,UPPS-P,,uppsp.37,,,,,,1.0,,,,,,,,,1888,,QuestPilot1,,
428,30,,survey-multi-choice,2038519.0,0.0-16.0,,592769.0,,Agree Some,,UPPS-P,,uppsp.38,,,,,,2.0,,,,,,,,,1888,,QuestPilot1,,
429,30,,survey-multi-choice,2038519.0,0.0-16.0,,592769.0,,Disagree Some,,UPPS-P,,uppsp.39,,,,,,3.0,,,,,,,,,1888,,QuestPilot1,,
430,30,,survey-multi-choice,2038519.0,0.0-16.0,,592769.0,,Agree Strongly,,UPPS-P,,uppsp.40,,,,,,1.0,,,,,,,,,1888,,QuestPilot1,,
431,30,,survey-multi-choice,2038519.0,0.0-16.0,,592769.0,,Agree Some,,UPPS-P,,uppsp.41,,,,,,2.0,,,,,,,,,1888,,QuestPilot1,,
432,30,,survey-multi-choice,2038519.0,0.0-16.0,,592769.0,,Agree Strongly,,UPPS-P,,uppsp.42,,,,,,1.0,,,,,,,,,1888,,QuestPilot1,,
433,30,,survey-multi-choice,2038519.0,0.0-16.0,,592769.0,,Agree Strongly,,UPPS-P,,uppsp.43,,,,,,1.0,,,,,,,,,1888,,QuestPilot1,,
434,30,,survey-multi-choice,2038519.0,0.0-16.0,,592769.0,,Agree Some,,UPPS-P,,uppsp.44,,,,,,2.0,,,,,,,,,1888,,QuestPilot1,,
435,30,,survey-multi-choice,2038519.0,0.0-16.0,,592769.0,,Agree Some,,UPPS-P,,uppsp.45,,,,,,2.0,,,,,,,,,1888,,QuestPilot1,,
436,30,,survey-multi-choice,2038519.0,0.0-16.0,,592769.0,,Agree Strongly,,UPPS-P,,uppsp.46,,,,,,1.0,,,,,,,,,1888,,QuestPilot1,,
437,30,,survey-multi-choice,2038519.0,0.0-16.0,,592769.0,,Agree Some,,UPPS-P,,uppsp.47,,,,,,2.0,,,,,,,,,1888,,QuestPilot1,,
438,30,,survey-multi-choice,2038519.0,0.0-16.0,,592769.0,,Agree Strongly,,UPPS-P,,uppsp.48,,,,,,1.0,,,,,,,,,1888,,QuestPilot1,,
439,30,,survey-multi-choice,2038519.0,0.0-16.0,,592769.0,,Agree Some,,UPPS-P,,uppsp.49,,,,,,2.0,,,,,,,,,1888,,QuestPilot1,,
440,30,,survey-multi-choice,2038519.0,0.0-16.0,,592769.0,,Agree Some,,UPPS-P,,uppsp.50,,,,,,2.0,,,,,,,,,1888,,QuestPilot1,,
441,30,,survey-multi-choice,2038519.0,0.0-16.0,,592769.0,,Agree Strongly,,UPPS-P,,uppsp.51,,,,,,1.0,,,,,,,,,1888,,QuestPilot1,,
442,30,,survey-multi-choice,2038519.0,0.0-16.0,,592769.0,,Disagree Some,,UPPS-P,,uppsp.52,,,,,,3.0,,,,,,,,,1888,,QuestPilot1,,
443,30,,survey-multi-choice,2038519.0,0.0-16.0,,592769.0,,Agree Strongly,,UPPS-P,,uppsp.53,,,,,,1.0,,,,,,,,,1888,,QuestPilot1,,
444,30,,survey-multi-choice,2038519.0,0.0-16.0,,592769.0,,Agree Strongly,,UPPS-P,,uppsp.54,,,,,,1.0,,,,,,,,,1888,,QuestPilot1,,
445,30,,survey-multi-choice,2038519.0,0.0-16.0,,592769.0,,Agree Strongly,,UPPS-P,,uppsp.55,,,,,,1.0,,,,,,,,,1888,,QuestPilot1,,
446,30,,survey-multi-choice,2038519.0,0.0-16.0,,592769.0,,Agree Strongly,,UPPS-P,,uppsp.56,,,,,,1.0,,,,,,,,,1888,,QuestPilot1,,
447,30,,survey-multi-choice,2038519.0,0.0-16.0,,592769.0,,Agree Strongly,,UPPS-P,,uppsp.57,,,,,,1.0,,,,,,,,,1888,,QuestPilot1,,
448,30,,survey-multi-choice,2038519.0,0.0-16.0,,592769.0,,Agree Some,,UPPS-P,,uppsp.58,,,,,,2.0,,,,,,,,,1888,,QuestPilot1,,
449,30,,survey-multi-choice,2038519.0,0.0-16.0,,592769.0,,Agree Strongly,,UPPS-P,,uppsp.59,,,,,,1.0,,,,,,,,,1888,,QuestPilot1,,
675,55,,survey-multi-choice,188033.0,0.0-2.0,,148511.0,,Not at all,,STICSA_T,,sticsa_t.1,,,,,,1.0,,,,,,,,,1890,,QuestPilot1,,
676,55,,survey-multi-choice,188033.0,0.0-2.0,,148511.0,,Not at all,,STICSA_T,,sticsa_t.2,,,,,,1.0,,,,,,,,,1890,,QuestPilot1,,
677,55,,survey-multi-choice,188033.0,0.0-2.0,,148511.0,,Not at all,,STICSA_T,,sticsa_t.3,,,,,,1.0,,,,,,,,,1890,,QuestPilot1,,
678,55,,survey-multi-choice,188033.0,0.0-2.0,,148511.0,,Not at all,,STICSA_T,,sticsa_t.4,,,,,,1.0,,,,,,,,,1890,,QuestPilot1,,
679,55,,survey-multi-choice,188033.0,0.0-2.0,,148511.0,,Not at all,,STICSA_T,,sticsa_t.5,,,,,,1.0,,,,,,,,,1890,,QuestPilot1,,
680,55,,survey-multi-choice,188033.0,0.0-2.0,,148511.0,,Not at all,,STICSA_T,,sticsa_t.6,,,,,,1.0,,,,,,,,,1890,,QuestPilot1,,
681,55,,survey-multi-choice,188033.0,0.0-2.0,,148511.0,,Not at all,,STICSA_T,,sticsa_t.7,,,,,,1.0,,,,,,,,,1890,,QuestPilot1,,
682,55,,survey-multi-choice,188033.0,0.0-2.0,,148511.0,,Not at all,,STICSA_T,,sticsa_t.8,,,,,,1.0,,,,,,,,,1890,,QuestPilot1,,
683,55,,survey-multi-choice,188033.0,0.0-2.0,,148511.0,,Not at all,,STICSA_T,,sticsa_t.9,,,,,,1.0,,,,,,,,,1890,,QuestPilot1,,
684,55,,survey-multi-choice,188033.0,0.0-2.0,,148511.0,,Not at all,,STICSA_T,,sticsa_t.10,,,,,,1.0,,,,,,,,,1890,,QuestPilot1,,
685,55,,survey-multi-choice,188033.0,0.0-2.0,,148511.0,,Not at all,,STICSA_T,,sticsa_t.11,,,,,,1.0,,,,,,,,,1890,,QuestPilot1,,
686,55,,survey-multi-choice,188033.0,0.0-2.0,,148511.0,,Not at all,,STICSA_T,,sticsa_t.12,,,,,,1.0,,,,,,,,,1890,,QuestPilot1,,
687,55,,survey-multi-choice,188033.0,0.0-2.0,,148511.0,,Not at all,,STICSA_T,,sticsa_t.13,,,,,,1.0,,,,,,,,,1890,,QuestPilot1,,
688,55,,survey-multi-choice,188033.0,0.0-2.0,,148511.0,,Not at all,,STICSA_T,,sticsa_t.14,,,,,,1.0,,,,,,,,,1890,,QuestPilot1,,
689,55,,survey-multi-choice,188033.0,0.0-2.0,,148511.0,,Not at all,,STICSA_T,,sticsa_t.15,,,,,,1.0,,,,,,,,,1890,,QuestPilot1,,
690,55,,survey-multi-choice,188033.0,0.0-2.0,,148511.0,,Not at all,,STICSA_T,,sticsa_t.16,,,,,,1.0,,,,,,,,,1890,,QuestPilot1,,
691,55,,survey-multi-choice,188033.0,0.0-2.0,,148511.0,,Not at all,,STICSA_T,,sticsa_t.17,,,,,,1.0,,,,,,,,,1890,,QuestPilot1,,
692,55,,survey-multi-choice,188033.0,0.0-2.0,,148511.0,,Not at all,,STICSA_T,,sticsa_t.18,,,,,,1.0,,,,,,,,,1890,,QuestPilot1,,
693,55,,survey-multi-choice,188033.0,0.0-2.0,,148511.0,,Not at all,,STICSA_T,,sticsa_t.19,,,,,,1.0,,,,,,,,,1890,,QuestPilot1,,
694,55,,survey-multi-choice,188033.0,0.0-2.0,,148511.0,,Not at all,,STICSA_T,,sticsa_t.20,,,,,,1.0,,,,,,,,,1890,,QuestPilot1,,
695,55,,survey-multi-choice,188033.0,0.0-2.0,,148511.0,,Not at all,,STICSA_T,,sticsa_t.21,,,,,,1.0,,,,,,,,,1890,,QuestPilot1,,
696,56,,survey-multi-choice,413738.0,0.0-3.0,,224651.0,,None,,LSAS_A,,leb.2,,,,,,0.0,,,,,,,,,1890,,QuestPilot1,,
697,56,,survey-multi-choice,413738.0,0.0-3.0,,224651.0,,None,,LSAS_A,,leb.3,,,,,,0.0,,,,,,,,,1890,,QuestPilot1,,
698,56,,survey-multi-choice,413738.0,0.0-3.0,,224651.0,,Mild,,LSAS_A,,leb.4,,,,,,1.0,,,,,,,,,1890,,QuestPilot1,,
699,56,,survey-multi-choice,413738.0,0.0-3.0,,224651.0,,None,,LSAS_A,,leb.13,,,,,,0.0,,,,,,,,,1890,,QuestPilot1,,
700,56,,survey-multi-choice,413738.0,0.0-3.0,,224651.0,,Moderate,,LSAS_A,,leb.14,,,,,,2.0,,,,,,,,,1890,,QuestPilot1,,
701,56,,survey-multi-choice,413738.0,0.0-3.0,,224651.0,,None,,LSAS_A,,leb.15,,,,,,0.0,,,,,,,,,1890,,QuestPilot1,,
702,56,,survey-multi-choice,413738.0,0.0-3.0,,224651.0,,Mild,,LSAS_A,,leb.19,,,,,,1.0,,,,,,,,,1890,,QuestPilot1,,
703,56,,survey-multi-choice,413738.0,0.0-3.0,,224651.0,,None,,LSAS_A,,leb.21,,,,,,0.0,,,,,,,,,1890,,QuestPilot1,,
704,56,,survey-multi-choice,413738.0,0.0-3.0,,224651.0,,None,,LSAS_A,,leb.22,,,,,,0.0,,,,,,,,,1890,,QuestPilot1,,
705,56,,survey-multi-choice,413738.0,0.0-3.0,,224651.0,,Mild,,LSAS_A,,leb.23,,,,,,1.0,,,,,,,,,1890,,QuestPilot1,,
706,56,,survey-multi-choice,413738.0,0.0-3.0,,224651.0,,Moderate,,LSAS_A,,leb.24,,,,,,2.0,,,,,,,,,1890,,QuestPilot1,,
707,57,,survey-multi-choice,519114.0,0.0-4.0,,104310.0,,Occasionally,,LSAS_B,,leb.27,,,,,,0.0,,,,,,,,,1890,,QuestPilot1,,
708,57,,survey-multi-choice,519114.0,0.0-4.0,,104310.0,,Never,,LSAS_B,,leb.29,,,,,,0.0,,,,,,,,,1890,,QuestPilot1,,
709,57,,survey-multi-choice,519114.0,0.0-4.0,,104310.0,,Never,,LSAS_B,,leb.30,,,,,,0.0,,,,,,,,,1890,,QuestPilot1,,
710,57,,survey-multi-choice,519114.0,0.0-4.0,,104310.0,,Never,,LSAS_B,,leb.31,,,,,,0.0,,,,,,,,,1890,,QuestPilot1,,
711,57,,survey-multi-choice,519114.0,0.0-4.0,,104310.0,,Occasionally,,LSAS_B,,leb.32,,,,,,0.0,,,,,,,,,1890,,QuestPilot1,,
712,57,,survey-multi-choice,519114.0,0.0-4.0,,104310.0,,Occasionally,,LSAS_B,,leb.35,,,,,,0.0,,,,,,,,,1890,,QuestPilot1,,
713,57,,survey-multi-choice,519114.0,0.0-4.0,,104310.0,,Never,,LSAS_B,,leb.39,,,,,,0.0,,,,,,,,,1890,,QuestPilot1,,
714,57,,survey-multi-choice,519114.0,0.0-4.0,,104310.0,,Never,,LSAS_B,,leb.40,,,,,,0.0,,,,,,,,,1890,,QuestPilot1,,
715,57,,survey-multi-choice,519114.0,0.0-4.0,,104310.0,,Never,,LSAS_B,,leb.45,,,,,,0.0,,,,,,,,,1890,,QuestPilot1,,
716,57,,survey-multi-choice,519114.0,0.0-4.0,,104310.0,,Never,,LSAS_B,,leb.46,,,,,,0.0,,,,,,,,,1890,,QuestPilot1,,
717,57,,survey-multi-choice,519114.0,0.0-4.0,,104310.0,,Occasionally,,LSAS_B,,leb.48,,,,,,0.0,,,,,,,,,1890,,QuestPilot1,,
718,58,,survey-multi-choice,571484.0,0.0-5.0,,51284.0,,Not at all,,STICSA_S,,sticsa_s.1,,,,,,1.0,,,,,,,,,1890,,QuestPilot1,,
719,58,,survey-multi-choice,571484.0,0.0-5.0,,51284.0,,Not at all,,STICSA_S,,sticsa_s.2,,,,,,1.0,,,,,,,,,1890,,QuestPilot1,,
720,58,,survey-multi-choice,571484.0,0.0-5.0,,51284.0,,Not at all,,STICSA_S,,sticsa_s.3,,,,,,1.0,,,,,,,,,1890,,QuestPilot1,,
721,58,,survey-multi-choice,571484.0,0.0-5.0,,51284.0,,Not at all,,STICSA_S,,sticsa_s.4,,,,,,1.0,,,,,,,,,1890,,QuestPilot1,,
722,58,,survey-multi-choice,571484.0,0.0-5.0,,51284.0,,Not at all,,STICSA_S,,sticsa_s.5,,,,,,1.0,,,,,,,,,1890,,QuestPilot1,,
723,58,,survey-multi-choice,571484.0,0.0-5.0,,51284.0,,Not at all,,STICSA_S,,sticsa_s.6,,,,,,1.0,,,,,,,,,1890,,QuestPilot1,,
724,58,,survey-multi-choice,571484.0,0.0-5.0,,51284.0,,Not at all,,STICSA_S,,sticsa_s.7,,,,,,1.0,,,,,,,,,1890,,QuestPilot1,,
725,58,,survey-multi-choice,571484.0,0.0-5.0,,51284.0,,Not at all,,STICSA_S,,sticsa_s.8,,,,,,1.0,,,,,,,,,1890,,QuestPilot1,,
726,58,,survey-multi-choice,571484.0,0.0-5.0,,51284.0,,Not at all,,STICSA_S,,sticsa_s.9,,,,,,1.0,,,,,,,,,1890,,QuestPilot1,,
727,58,,survey-multi-choice,571484.0,0.0-5.0,,51284.0,,Not at all,,STICSA_S,,sticsa_s.10,,,,,,1.0,,,,,,,,,1890,,QuestPilot1,,
728,58,,survey-multi-choice,571484.0,0.0-5.0,,51284.0,,Not at all,,STICSA_S,,sticsa_s.11,,,,,,1.0,,,,,,,,,1890,,QuestPilot1,,
729,58,,survey-multi-choice,571484.0,0.0-5.0,,51284.0,,Not at all,,STICSA_S,,sticsa_s.12,,,,,,1.0,,,,,,,,,1890,,QuestPilot1,,
730,58,,survey-multi-choice,571484.0,0.0-5.0,,51284.0,,Not at all,,STICSA_S,,sticsa_s.13,,,,,,1.0,,,,,,,,,1890,,QuestPilot1,,
731,58,,survey-multi-choice,571484.0,0.0-5.0,,51284.0,,Not at all,,STICSA_S,,sticsa_s.14,,,,,,1.0,,,,,,,,,1890,,QuestPilot1,,
732,58,,survey-multi-choice,571484.0,0.0-5.0,,51284.0,,Not at all,,STICSA_S,,sticsa_s.15,,,,,,1.0,,,,,,,,,1890,,QuestPilot1,,
733,58,,survey-multi-choice,571484.0,0.0-5.0,,51284.0,,Not at all,,STICSA_S,,sticsa_s.16,,,,,,1.0,,,,,,,,,1890,,QuestPilot1,,
734,58,,survey-multi-choice,571484.0,0.0-5.0,,51284.0,,Not at all,,STICSA_S,,sticsa_s.17,,,,,,1.0,,,,,,,,,1890,,QuestPilot1,,
735,58,,survey-multi-choice,571484.0,0.0-5.0,,51284.0,,Not at all,,STICSA_S,,sticsa_s.18,,,,,,1.0,,,,,,,,,1890,,QuestPilot1,,
736,58,,survey-multi-choice,571484.0,0.0-5.0,,51284.0,,Not at all,,STICSA_S,,sticsa_s.19,,,,,,1.0,,,,,,,,,1890,,QuestPilot1,,
737,58,,survey-multi-choice,571484.0,0.0-5.0,,51284.0,,Not at all,,STICSA_S,,sticsa_s.20,,,,,,1.0,,,,,,,,,1890,,QuestPilot1,,
738,58,,survey-multi-choice,571484.0,0.0-5.0,,51284.0,,Not at all,,STICSA_S,,sticsa_s.21,,,,,,1.0,,,,,,,,,1890,,QuestPilot1,,
739,59,,survey-multi-choice,599488.0,0.0-6.0,,26992.0,,Monthly or less,,AUDIT,,alcohol.1,,,,,,1.0,,,,,,,,,1890,,QuestPilot1,,
740,60,,survey-multi-choice,636184.0,0.0-7.0,,35673.0,,A lot,,AES,,apathy.2,,,,,,4.0,,,,,,,,,1890,,QuestPilot1,,
741,60,,survey-multi-choice,636184.0,0.0-7.0,,35673.0,,A lot,,AES,,apathy.7,,,,,,4.0,,,,,,,,,1890,,QuestPilot1,,
742,60,,survey-multi-choice,636184.0,0.0-7.0,,35673.0,,A lot,,AES,,apathy.17,,,,,,4.0,,,,,,,,,1890,,QuestPilot1,,
743,60,,survey-multi-choice,636184.0,0.0-7.0,,35673.0,,A lot,,AES,,apathy.18,,,,,,4.0,,,,,,,,,1890,,QuestPilot1,,
744,61,,survey-multi-choice,742778.0,0.0-8.0,,105577.0,,Often,,EAT,,eat.1,,,,,,1.0,,,,,,,,,1890,,QuestPilot1,,
745,61,,survey-multi-choice,742778.0,0.0-8.0,,105577.0,,Often,,EAT,,eat.11,,,,,,1.0,,,,,,,,,1890,,QuestPilot1,,
746,61,,survey-multi-choice,742778.0,0.0-8.0,,105577.0,,Usually,,EAT,,eat.12,,,,,,2.0,,,,,,,,,1890,,QuestPilot1,,
747,61,,survey-multi-choice,742778.0,0.0-8.0,,105577.0,,Rarely,,EAT,,eat.14,,,,,,0.0,,,,,,,,,1890,,QuestPilot1,,
748,62,,survey-multi-choice,925166.0,0.0-9.0,,181324.0,,Not at all characteristic of me,,IUS_12,,ius.1,,,,,,1.0,,,,,,,,,1890,,QuestPilot1,,
749,62,,survey-multi-choice,925166.0,0.0-9.0,,181324.0,,Somewhat characteristic of me,,IUS_12,,ius.2,,,,,,3.0,,,,,,,,,1890,,QuestPilot1,,
750,62,,survey-multi-choice,925166.0,0.0-9.0,,181324.0,,Not at all characteristic of me,,IUS_12,,ius.3,,,,,,1.0,,,,,,,,,1890,,QuestPilot1,,
751,62,,survey-multi-choice,925166.0,0.0-9.0,,181324.0,,Not at all characteristic of me,,IUS_12,,ius.4,,,,,,1.0,,,,,,,,,1890,,QuestPilot1,,
752,62,,survey-multi-choice,925166.0,0.0-9.0,,181324.0,,Not at all characteristic of me,,IUS_12,,ius.5,,,,,,1.0,,,,,,,,,1890,,QuestPilot1,,
753,62,,survey-multi-choice,925166.0,0.0-9.0,,181324.0,,Not at all characteristic of me,,IUS_12,,ius.6,,,,,,1.0,,,,,,,,,1890,,QuestPilot1,,
754,62,,survey-multi-choice,925166.0,0.0-9.0,,181324.0,,Not at all characteristic of me,,IUS_12,,ius.7,,,,,,1.0,,,,,,,,,1890,,QuestPilot1,,
755,62,,survey-multi-choice,925166.0,0.0-9.0,,181324.0,,Somewhat characteristic of me,,IUS_12,,ius.8,,,,,,3.0,,,,,,,,,1890,,QuestPilot1,,
756,62,,survey-multi-choice,925166.0,0.0-9.0,,181324.0,,Not at all characteristic of me,,IUS_12,,ius.9,,,,,,1.0,,,,,,,,,1890,,QuestPilot1,,
757,62,,survey-multi-choice,925166.0,0.0-9.0,,181324.0,,Not at all characteristic of me,,IUS_12,,ius.10,,,,,,1.0,,,,,,,,,1890,,QuestPilot1,,
758,62,,survey-multi-choice,925166.0,0.0-9.0,,181324.0,,Very characteristic of me,,IUS_12,,ius.11,,,,,,4.0,,,,,,,,,1890,,QuestPilot1,,
759,62,,survey-multi-choice,925166.0,0.0-9.0,,181324.0,,Somewhat characteristic of me,,IUS_12,,ius.12,,,,,,3.0,,,,,,,,,1890,,QuestPilot1,,
760,63,,survey-multi-choice,981688.0,0.0-10.0,,55489.0,,Almost always,,STAI,,anxiety.1,,,,,,4.0,,,,,,,,,1890,,QuestPilot1,,
761,63,,survey-multi-choice,981688.0,0.0-10.0,,55489.0,,Almost always,,STAI,,anxiety.3,,,,,,4.0,,,,,,,,,1890,,QuestPilot1,,
762,63,,survey-multi-choice,981688.0,0.0-10.0,,55489.0,,Almost never,,STAI,,anxiety.5,,,,,,1.0,,,,,,,,,1890,,QuestPilot1,,
763,63,,survey-multi-choice,981688.0,0.0-10.0,,55489.0,,Almost never,,STAI,,anxiety.8,,,,,,1.0,,,,,,,,,1890,,QuestPilot1,,
764,63,,survey-multi-choice,981688.0,0.0-10.0,,55489.0,,Almost never,,STAI,,anxiety.9,,,,,,1.0,,,,,,,,,1890,,QuestPilot1,,
765,63,,survey-multi-choice,981688.0,0.0-10.0,,55489.0,,Almost always,,STAI,,anxiety.10,,,,,,4.0,,,,,,,,,1890,,QuestPilot1,,
766,63,,survey-multi-choice,981688.0,0.0-10.0,,55489.0,,Almost never,,STAI,,anxiety.12,,,,,,1.0,,,,,,,,,1890,,QuestPilot1,,
767,63,,survey-multi-choice,981688.0,0.0-10.0,,55489.0,,Almost always,,STAI,,anxiety.13,,,,,,4.0,,,,,,,,,1890,,QuestPilot1,,
768,63,,survey-multi-choice,981688.0,0.0-10.0,,55489.0,,Almost always,,STAI,,anxiety.16,,,,,,4.0,,,,,,,,,1890,,QuestPilot1,,
769,63,,survey-multi-choice,981688.0,0.0-10.0,,55489.0,,Almost always,,STAI,,anxiety.19,,,,,,4.0,,,,,,,,,1890,,QuestPilot1,,
770,63,,survey-multi-choice,981688.0,0.0-10.0,,55489.0,,Almost never,,STAI,,anxiety.20,,,,,,1.0,,,,,,,,,1890,,QuestPilot1,,
771,64,,survey-multi-choice,1148840.0,0.0-11.0,,166109.0,,Almost always/Always,,BIS,,bis.1,,,,,,4.0,,,,,,,,,1890,,QuestPilot1,,
772,64,,survey-multi-choice,1148840.0,0.0-11.0,,166109.0,,Rarely/Never,,BIS,,bis.6,,,,,,1.0,,,,,,,,,1890,,QuestPilot1,,
773,64,,survey-multi-choice,1148840.0,0.0-11.0,,166109.0,,Often,,BIS,,bis.9,,,,,,3.0,,,,,,,,,1890,,QuestPilot1,,
774,64,,survey-multi-choice,1148840.0,0.0-11.0,,166109.0,,Often,,BIS,,bis.13,,,,,,3.0,,,,,,,,,1890,,QuestPilot1,,
775,64,,survey-multi-choice,1148840.0,0.0-11.0,,166109.0,,Rarely/Never,,BIS,,bis.14,,,,,,1.0,,,,,,,,,1890,,QuestPilot1,,
776,64,,survey-multi-choice,1148840.0,0.0-11.0,,166109.0,,Occasionally,,BIS,,bis.15,,,,,,2.0,,,,,,,,,1890,,QuestPilot1,,
777,64,,survey-multi-choice,1148840.0,0.0-11.0,,166109.0,,Occasionally,,BIS,,bis.17,,,,,,2.0,,,,,,,,,1890,,QuestPilot1,,
778,64,,survey-multi-choice,1148840.0,0.0-11.0,,166109.0,,Almost always/Always,,BIS,,bis.20,,,,,,4.0,,,,,,,,,1890,,QuestPilot1,,
779,64,,survey-multi-choice,1148840.0,0.0-11.0,,166109.0,,Occasionally,,BIS,,bis.22,,,,,,2.0,,,,,,,,,1890,,QuestPilot1,,
780,64,,survey-multi-choice,1148840.0,0.0-11.0,,166109.0,,Rarely/Never,,BIS,,bis.25,,,,,,1.0,,,,,,,,,1890,,QuestPilot1,,
781,64,,survey-multi-choice,1148840.0,0.0-11.0,,166109.0,,Rarely/Never,,BIS,,bis.26,,,,,,1.0,,,,,,,,,1890,,QuestPilot1,,
782,65,,survey-multi-choice,1309503.0,0.0-12.0,,159609.0,,Most of the time,,Zhung,,zung.11,,,,,,4.0,,,,,,,,,1890,,QuestPilot1,,
783,65,,survey-multi-choice,1309503.0,0.0-12.0,,159609.0,,Most of the time,,Zhung,,zung.12,,,,,,4.0,,,,,,,,,1890,,QuestPilot1,,
784,65,,survey-multi-choice,1309503.0,0.0-12.0,,159609.0,,A little of the time,,Zhung,,zung.13,,,,,,1.0,,,,,,,,,1890,,QuestPilot1,,
785,65,,survey-multi-choice,1309503.0,0.0-12.0,,159609.0,,Most of the time,,Zhung,,zung.14,,,,,,4.0,,,,,,,,,1890,,QuestPilot1,,
786,65,,survey-multi-choice,1309503.0,0.0-12.0,,159609.0,,Most of the time,,Zhung,,zung.16,,,,,,4.0,,,,,,,,,1890,,QuestPilot1,,
787,65,,survey-multi-choice,1309503.0,0.0-12.0,,159609.0,,Most of the time,,Zhung,,zung.17,,,,,,4.0,,,,,,,,,1890,,QuestPilot1,,
788,65,,survey-multi-choice,1309503.0,0.0-12.0,,159609.0,,Most of the time,,Zhung,,zung.18,,,,,,4.0,,,,,,,,,1890,,QuestPilot1,,
789,65,,survey-multi-choice,1309503.0,0.0-12.0,,159609.0,,Most of the time,,Zhung,,zung.20,,,,,,4.0,,,,,,,,,1890,,QuestPilot1,,
790,66,,survey-multi-choice,1445815.0,0.0-13.0,,135252.0,,A lot,,OCIR,,ocir.1,,,,,,3.0,,,,,,,,,1890,,QuestPilot1,,
791,66,,survey-multi-choice,1445815.0,0.0-13.0,,135252.0,,Moderately,,OCIR,,ocir.2,,,,,,2.0,,,,,,,,,1890,,QuestPilot1,,
792,66,,survey-multi-choice,1445815.0,0.0-13.0,,135252.0,,Not at all,,OCIR,,ocir.4,,,,,,0.0,,,,,,,,,1890,,QuestPilot1,,
793,66,,survey-multi-choice,1445815.0,0.0-13.0,,135252.0,,Not at all,,OCIR,,ocir.6,,,,,,0.0,,,,,,,,,1890,,QuestPilot1,,
794,66,,survey-multi-choice,1445815.0,0.0-13.0,,135252.0,,Not at all,,OCIR,,ocir.7,,,,,,0.0,,,,,,,,,1890,,QuestPilot1,,
795,66,,survey-multi-choice,1445815.0,0.0-13.0,,135252.0,,A little,,OCIR,,ocir.9,,,,,,1.0,,,,,,,,,1890,,QuestPilot1,,
796,66,,survey-multi-choice,1445815.0,0.0-13.0,,135252.0,,Not at all,,OCIR,,ocir.11,,,,,,0.0,,,,,,,,,1890,,QuestPilot1,,
797,66,,survey-multi-choice,1445815.0,0.0-13.0,,135252.0,,Not at all,,OCIR,,ocir.12,,,,,,0.0,,,,,,,,,1890,,QuestPilot1,,
798,66,,survey-multi-choice,1445815.0,0.0-13.0,,135252.0,,Moderately,,OCIR,,ocir.13,,,,,,2.0,,,,,,,,,1890,,QuestPilot1,,
799,66,,survey-multi-choice,1445815.0,0.0-13.0,,135252.0,,Not at all,,OCIR,,ocir.16,,,,,,0.0,,,,,,,,,1890,,QuestPilot1,,
800,66,,survey-multi-choice,1445815.0,0.0-13.0,,135252.0,,Not at all,,OCIR,,ocir.18,,,,,,0.0,,,,,,,,,1890,,QuestPilot1,,
801,67,,survey-multi-choice,1587826.0,0.0-14.0,,140917.0,,smaller reward today,,MCQ,,mcq.1,,,,,,0.0,,,,,,,,,1890,,QuestPilot1,,
802,67,,survey-multi-choice,1587826.0,0.0-14.0,,140917.0,,larger reward in the specified number of days,,MCQ,,mcq.2,,,,,,0.0,,,,,,,,,1890,,QuestPilot1,,
803,67,,survey-multi-choice,1587826.0,0.0-14.0,,140917.0,,smaller reward today,,MCQ,,mcq.3,,,,,,0.0,,,,,,,,,1890,,QuestPilot1,,
804,67,,survey-multi-choice,1587826.0,0.0-14.0,,140917.0,,larger reward in the specified number of days,,MCQ,,mcq.4,,,,,,0.0,,,,,,,,,1890,,QuestPilot1,,
805,67,,survey-multi-choice,1587826.0,0.0-14.0,,140917.0,,smaller reward today,,MCQ,,mcq.5,,,,,,0.0,,,,,,,,,1890,,QuestPilot1,,
806,67,,survey-multi-choice,1587826.0,0.0-14.0,,140917.0,,smaller reward today,,MCQ,,mcq.6,,,,,,0.0,,,,,,,,,1890,,QuestPilot1,,
807,67,,survey-multi-choice,1587826.0,0.0-14.0,,140917.0,,larger reward in the specified number of days,,MCQ,,mcq.7,,,,,,0.0,,,,,,,,,1890,,QuestPilot1,,
808,67,,survey-multi-choice,1587826.0,0.0-14.0,,140917.0,,larger reward in the specified number of days,,MCQ,,mcq.8,,,,,,0.0,,,,,,,,,1890,,QuestPilot1,,
809,67,,survey-multi-choice,1587826.0,0.0-14.0,,140917.0,,smaller reward today,,MCQ,,mcq.9,,,,,,0.0,,,,,,,,,1890,,QuestPilot1,,
810,67,,survey-multi-choice,1587826.0,0.0-14.0,,140917.0,,smaller reward today,,MCQ,,mcq.10,,,,,,0.0,,,,,,,,,1890,,QuestPilot1,,
811,67,,survey-multi-choice,1587826.0,0.0-14.0,,140917.0,,larger reward in the specified number of days,,MCQ,,mcq.11,,,,,,0.0,,,,,,,,,1890,,QuestPilot1,,
812,67,,survey-multi-choice,1587826.0,0.0-14.0,,140917.0,,smaller reward today,,MCQ,,mcq.12,,,,,,0.0,,,,,,,,,1890,,QuestPilot1,,
813,67,,survey-multi-choice,1587826.0,0.0-14.0,,140917.0,,smaller reward today,,MCQ,,mcq.13,,,,,,0.0,,,,,,,,,1890,,QuestPilot1,,
814,67,,survey-multi-choice,1587826.0,0.0-14.0,,140917.0,,smaller reward today,,MCQ,,mcq.14,,,,,,0.0,,,,,,,,,1890,,QuestPilot1,,
815,67,,survey-multi-choice,1587826.0,0.0-14.0,,140917.0,,smaller reward today,,MCQ,,mcq.15,,,,,,0.0,,,,,,,,,1890,,QuestPilot1,,
816,67,,survey-multi-choice,1587826.0,0.0-14.0,,140917.0,,smaller reward today,,MCQ,,mcq.16,,,,,,0.0,,,,,,,,,1890,,QuestPilot1,,
817,67,,survey-multi-choice,1587826.0,0.0-14.0,,140917.0,,smaller reward today,,MCQ,,mcq.17,,,,,,0.0,,,,,,,,,1890,,QuestPilot1,,
818,67,,survey-multi-choice,1587826.0,0.0-14.0,,140917.0,,smaller reward today,,MCQ,,mcq.18,,,,,,0.0,,,,,,,,,1890,,QuestPilot1,,
819,67,,survey-multi-choice,1587826.0,0.0-14.0,,140917.0,,larger reward in the specified number of days,,MCQ,,mcq.19,,,,,,0.0,,,,,,,,,1890,,QuestPilot1,,
820,67,,survey-multi-choice,1587826.0,0.0-14.0,,140917.0,,smaller reward today,,MCQ,,mcq.20,,,,,,0.0,,,,,,,,,1890,,QuestPilot1,,
821,67,,survey-multi-choice,1587826.0,0.0-14.0,,140917.0,,smaller reward today,,MCQ,,mcq.21,,,,,,0.0,,,,,,,,,1890,,QuestPilot1,,
822,67,,survey-multi-choice,1587826.0,0.0-14.0,,140917.0,,smaller reward today,,MCQ,,mcq.22,,,,,,0.0,,,,,,,,,1890,,QuestPilot1,,
823,67,,survey-multi-choice,1587826.0,0.0-14.0,,140917.0,,smaller reward today,,MCQ,,mcq.23,,,,,,0.0,,,,,,,,,1890,,QuestPilot1,,
824,67,,survey-multi-choice,1587826.0,0.0-14.0,,140917.0,,smaller reward today,,MCQ,,mcq.24,,,,,,0.0,,,,,,,,,1890,,QuestPilot1,,
825,67,,survey-multi-choice,1587826.0,0.0-14.0,,140917.0,,smaller reward today,,MCQ,,mcq.25,,,,,,0.0,,,,,,,,,1890,,QuestPilot1,,
826,67,,survey-multi-choice,1587826.0,0.0-14.0,,140917.0,,smaller reward today,,MCQ,,mcq.26,,,,,,0.0,,,,,,,,,1890,,QuestPilot1,,
827,67,,survey-multi-choice,1587826.0,0.0-14.0,,140917.0,,larger reward in the specified number of days,,MCQ,,mcq.27,,,,,,0.0,,,,,,,,,1890,,QuestPilot1,,
828,68,,survey-multi-choice,1817270.0,0.0-15.0,,228381.0,,Extremely characteristic,,CFC,,cfc.1,,,,,,5.0,,,,,,,,,1890,,QuestPilot1,,
829,68,,survey-multi-choice,1817270.0,0.0-15.0,,228381.0,,Somewhat characteristic,,CFC,,cfc.2,,,,,,4.0,,,,,,,,,1890,,QuestPilot1,,
830,68,,survey-multi-choice,1817270.0,0.0-15.0,,228381.0,,Uncertain,,CFC,,cfc.3,,,,,,3.0,,,,,,,,,1890,,QuestPilot1,,
831,68,,survey-multi-choice,1817270.0,0.0-15.0,,228381.0,,Somewhat uncharacteristic,,CFC,,cfc.4,,,,,,2.0,,,,,,,,,1890,,QuestPilot1,,
832,68,,survey-multi-choice,1817270.0,0.0-15.0,,228381.0,,Somewhat characteristic,,CFC,,cfc.5,,,,,,4.0,,,,,,,,,1890,,QuestPilot1,,
833,68,,survey-multi-choice,1817270.0,0.0-15.0,,228381.0,,Somewhat characteristic,,CFC,,cfc.6,,,,,,4.0,,,,,,,,,1890,,QuestPilot1,,
834,68,,survey-multi-choice,1817270.0,0.0-15.0,,228381.0,,Somewhat characteristic,,CFC,,cfc.7,,,,,,4.0,,,,,,,,,1890,,QuestPilot1,,
835,68,,survey-multi-choice,1817270.0,0.0-15.0,,228381.0,,Somewhat characteristic,,CFC,,cfc.8,,,,,,4.0,,,,,,,,,1890,,QuestPilot1,,
836,68,,survey-multi-choice,1817270.0,0.0-15.0,,228381.0,,Somewhat uncharacteristic,,CFC,,cfc.9,,,,,,2.0,,,,,,,,,1890,,QuestPilot1,,
837,68,,survey-multi-choice,1817270.0,0.0-15.0,,228381.0,,Somewhat characteristic,,CFC,,cfc.10,,,,,,4.0,,,,,,,,,1890,,QuestPilot1,,
838,68,,survey-multi-choice,1817270.0,0.0-15.0,,228381.0,,Somewhat uncharacteristic,,CFC,,cfc.11,,,,,,2.0,,,,,,,,,1890,,QuestPilot1,,
839,68,,survey-multi-choice,1817270.0,0.0-15.0,,228381.0,,Somewhat uncharacteristic,,CFC,,cfc.12,,,,,,2.0,,,,,,,,,1890,,QuestPilot1,,
840,69,,survey-multi-choice,2227819.0,0.0-16.0,,409249.0,,Agree Some,,UPPS-P,,uppsp.1,,,,,,2.0,,,,,,,,,1890,,QuestPilot1,,
841,69,,survey-multi-choice,2227819.0,0.0-16.0,,409249.0,,Disagree Strongly,,UPPS-P,,uppsp.2,,,,,,4.0,,,,,,,,,1890,,QuestPilot1,,
842,69,,survey-multi-choice,2227819.0,0.0-16.0,,409249.0,,Agree Strongly,,UPPS-P,,uppsp.3,,,,,,1.0,,,,,,,,,1890,,QuestPilot1,,
843,69,,survey-multi-choice,2227819.0,0.0-16.0,,409249.0,,Agree Strongly,,UPPS-P,,uppsp.4,,,,,,1.0,,,,,,,,,1890,,QuestPilot1,,
844,69,,survey-multi-choice,2227819.0,0.0-16.0,,409249.0,,Disagree Strongly,,UPPS-P,,uppsp.5,,,,,,4.0,,,,,,,,,1890,,QuestPilot1,,
845,69,,survey-multi-choice,2227819.0,0.0-16.0,,409249.0,,Agree Strongly,,UPPS-P,,uppsp.6,,,,,,1.0,,,,,,,,,1890,,QuestPilot1,,
846,69,,survey-multi-choice,2227819.0,0.0-16.0,,409249.0,,Disagree Strongly,,UPPS-P,,uppsp.7,,,,,,4.0,,,,,,,,,1890,,QuestPilot1,,
847,69,,survey-multi-choice,2227819.0,0.0-16.0,,409249.0,,Agree Some,,UPPS-P,,uppsp.8,,,,,,2.0,,,,,,,,,1890,,QuestPilot1,,
848,69,,survey-multi-choice,2227819.0,0.0-16.0,,409249.0,,Disagree Strongly,,UPPS-P,,uppsp.9,,,,,,4.0,,,,,,,,,1890,,QuestPilot1,,
849,69,,survey-multi-choice,2227819.0,0.0-16.0,,409249.0,,Disagree Strongly,,UPPS-P,,uppsp.10,,,,,,4.0,,,,,,,,,1890,,QuestPilot1,,
850,69,,survey-multi-choice,2227819.0,0.0-16.0,,409249.0,,Disagree Strongly,,UPPS-P,,uppsp.11,,,,,,4.0,,,,,,,,,1890,,QuestPilot1,,
851,69,,survey-multi-choice,2227819.0,0.0-16.0,,409249.0,,Disagree Strongly,,UPPS-P,,uppsp.12,,,,,,4.0,,,,,,,,,1890,,QuestPilot1,,
852,69,,survey-multi-choice,2227819.0,0.0-16.0,,409249.0,,Agree Some,,UPPS-P,,uppsp.13,,,,,,2.0,,,,,,,,,1890,,QuestPilot1,,
853,69,,survey-multi-choice,2227819.0,0.0-16.0,,409249.0,,Agree Some,,UPPS-P,,uppsp.14,,,,,,2.0,,,,,,,,,1890,,QuestPilot1,,
854,69,,survey-multi-choice,2227819.0,0.0-16.0,,409249.0,,Disagree Strongly,,UPPS-P,,uppsp.15,,,,,,4.0,,,,,,,,,1890,,QuestPilot1,,
855,69,,survey-multi-choice,2227819.0,0.0-16.0,,409249.0,,Agree Some,,UPPS-P,,uppsp.16,,,,,,2.0,,,,,,,,,1890,,QuestPilot1,,
856,69,,survey-multi-choice,2227819.0,0.0-16.0,,409249.0,,Agree Some,,UPPS-P,,uppsp.17,,,,,,2.0,,,,,,,,,1890,,QuestPilot1,,
857,69,,survey-multi-choice,2227819.0,0.0-16.0,,409249.0,,Agree Some,,UPPS-P,,uppsp.18,,,,,,2.0,,,,,,,,,1890,,QuestPilot1,,
858,69,,survey-multi-choice,2227819.0,0.0-16.0,,409249.0,,Agree Some,,UPPS-P,,uppsp.19,,,,,,2.0,,,,,,,,,1890,,QuestPilot1,,
859,69,,survey-multi-choice,2227819.0,0.0-16.0,,409249.0,,Disagree Strongly,,UPPS-P,,uppsp.20,,,,,,4.0,,,,,,,,,1890,,QuestPilot1,,
860,69,,survey-multi-choice,2227819.0,0.0-16.0,,409249.0,,Agree Some,,UPPS-P,,uppsp.21,,,,,,2.0,,,,,,,,,1890,,QuestPilot1,,
861,69,,survey-multi-choice,2227819.0,0.0-16.0,,409249.0,,Disagree Strongly,,UPPS-P,,uppsp.22,,,,,,4.0,,,,,,,,,1890,,QuestPilot1,,
862,69,,survey-multi-choice,2227819.0,0.0-16.0,,409249.0,,Agree Some,,UPPS-P,,uppsp.23,,,,,,2.0,,,,,,,,,1890,,QuestPilot1,,
863,69,,survey-multi-choice,2227819.0,0.0-16.0,,409249.0,,Agree Strongly,,UPPS-P,,uppsp.24,,,,,,1.0,,,,,,,,,1890,,QuestPilot1,,
864,69,,survey-multi-choice,2227819.0,0.0-16.0,,409249.0,,Disagree Strongly,,UPPS-P,,uppsp.25,,,,,,4.0,,,,,,,,,1890,,QuestPilot1,,
865,69,,survey-multi-choice,2227819.0,0.0-16.0,,409249.0,,Agree Strongly,,UPPS-P,,uppsp.26,,,,,,1.0,,,,,,,,,1890,,QuestPilot1,,
866,69,,survey-multi-choice,2227819.0,0.0-16.0,,409249.0,,Agree Strongly,,UPPS-P,,uppsp.27,,,,,,1.0,,,,,,,,,1890,,QuestPilot1,,
867,69,,survey-multi-choice,2227819.0,0.0-16.0,,409249.0,,Agree Strongly,,UPPS-P,,uppsp.28,,,,,,1.0,,,,,,,,,1890,,QuestPilot1,,
868,69,,survey-multi-choice,2227819.0,0.0-16.0,,409249.0,,Disagree Strongly,,UPPS-P,,uppsp.29,,,,,,4.0,,,,,,,,,1890,,QuestPilot1,,
869,69,,survey-multi-choice,2227819.0,0.0-16.0,,409249.0,,Disagree Some,,UPPS-P,,catch.2,,,,,,1.0,,,,,,,,,1890,,QuestPilot1,,
870,69,,survey-multi-choice,2227819.0,0.0-16.0,,409249.0,,Agree Some,,UPPS-P,,uppsp.30,,,,,,2.0,,,,,,,,,1890,,QuestPilot1,,
871,69,,survey-multi-choice,2227819.0,0.0-16.0,,409249.0,,Agree Some,,UPPS-P,,uppsp.31,,,,,,2.0,,,,,,,,,1890,,QuestPilot1,,
872,69,,survey-multi-choice,2227819.0,0.0-16.0,,409249.0,,Disagree Some,,UPPS-P,,uppsp.32,,,,,,3.0,,,,,,,,,1890,,QuestPilot1,,
873,69,,survey-multi-choice,2227819.0,0.0-16.0,,409249.0,,Agree Some,,UPPS-P,,uppsp.33,,,,,,2.0,,,,,,,,,1890,,QuestPilot1,,
874,69,,survey-multi-choice,2227819.0,0.0-16.0,,409249.0,,Disagree Strongly,,UPPS-P,,uppsp.34,,,,,,4.0,,,,,,,,,1890,,QuestPilot1,,
875,69,,survey-multi-choice,2227819.0,0.0-16.0,,409249.0,,Disagree Strongly,,UPPS-P,,uppsp.35,,,,,,4.0,,,,,,,,,1890,,QuestPilot1,,
876,69,,survey-multi-choice,2227819.0,0.0-16.0,,409249.0,,Agree Some,,UPPS-P,,uppsp.36,,,,,,2.0,,,,,,,,,1890,,QuestPilot1,,
877,69,,survey-multi-choice,2227819.0,0.0-16.0,,409249.0,,Agree Strongly,,UPPS-P,,uppsp.37,,,,,,1.0,,,,,,,,,1890,,QuestPilot1,,
878,69,,survey-multi-choice,2227819.0,0.0-16.0,,409249.0,,Agree Strongly,,UPPS-P,,uppsp.38,,,,,,1.0,,,,,,,,,1890,,QuestPilot1,,
879,69,,survey-multi-choice,2227819.0,0.0-16.0,,409249.0,,Disagree Strongly,,UPPS-P,,uppsp.39,,,,,,4.0,,,,,,,,,1890,,QuestPilot1,,
880,69,,survey-multi-choice,2227819.0,0.0-16.0,,409249.0,,Disagree Strongly,,UPPS-P,,uppsp.40,,,,,,4.0,,,,,,,,,1890,,QuestPilot1,,
881,69,,survey-multi-choice,2227819.0,0.0-16.0,,409249.0,,Disagree Strongly,,UPPS-P,,uppsp.41,,,,,,4.0,,,,,,,,,1890,,QuestPilot1,,
882,69,,survey-multi-choice,2227819.0,0.0-16.0,,409249.0,,Agree Strongly,,UPPS-P,,uppsp.42,,,,,,1.0,,,,,,,,,1890,,QuestPilot1,,
883,69,,survey-multi-choice,2227819.0,0.0-16.0,,409249.0,,Agree Strongly,,UPPS-P,,uppsp.43,,,,,,1.0,,,,,,,,,1890,,QuestPilot1,,
884,69,,survey-multi-choice,2227819.0,0.0-16.0,,409249.0,,Disagree Strongly,,UPPS-P,,uppsp.44,,,,,,4.0,,,,,,,,,1890,,QuestPilot1,,
885,69,,survey-multi-choice,2227819.0,0.0-16.0,,409249.0,,Disagree Strongly,,UPPS-P,,uppsp.45,,,,,,4.0,,,,,,,,,1890,,QuestPilot1,,
886,69,,survey-multi-choice,2227819.0,0.0-16.0,,409249.0,,Disagree Some,,UPPS-P,,uppsp.46,,,,,,3.0,,,,,,,,,1890,,QuestPilot1,,
887,69,,survey-multi-choice,2227819.0,0.0-16.0,,409249.0,,Disagree Strongly,,UPPS-P,,uppsp.47,,,,,,4.0,,,,,,,,,1890,,QuestPilot1,,
888,69,,survey-multi-choice,2227819.0,0.0-16.0,,409249.0,,Agree Strongly,,UPPS-P,,uppsp.48,,,,,,1.0,,,,,,,,,1890,,QuestPilot1,,
889,69,,survey-multi-choice,2227819.0,0.0-16.0,,409249.0,,Disagree Some,,UPPS-P,,uppsp.49,,,,,,3.0,,,,,,,,,1890,,QuestPilot1,,
890,69,,survey-multi-choice,2227819.0,0.0-16.0,,409249.0,,Disagree Strongly,,UPPS-P,,uppsp.50,,,,,,4.0,,,,,,,,,1890,,QuestPilot1,,
891,69,,survey-multi-choice,2227819.0,0.0-16.0,,409249.0,,Agree Some,,UPPS-P,,uppsp.51,,,,,,2.0,,,,,,,,,1890,,QuestPilot1,,
892,69,,survey-multi-choice,2227819.0,0.0-16.0,,409249.0,,Disagree Strongly,,UPPS-P,,uppsp.52,,,,,,4.0,,,,,,,,,1890,,QuestPilot1,,
893,69,,survey-multi-choice,2227819.0,0.0-16.0,,409249.0,,Agree Strongly,,UPPS-P,,uppsp.53,,,,,,1.0,,,,,,,,,1890,,QuestPilot1,,
894,69,,survey-multi-choice,2227819.0,0.0-16.0,,409249.0,,Disagree Some,,UPPS-P,,uppsp.54,,,,,,3.0,,,,,,,,,1890,,QuestPilot1,,
895,69,,survey-multi-choice,2227819.0,0.0-16.0,,409249.0,,Agree Strongly,,UPPS-P,,uppsp.55,,,,,,1.0,,,,,,,,,1890,,QuestPilot1,,
896,69,,survey-multi-choice,2227819.0,0.0-16.0,,409249.0,,Agree Some,,UPPS-P,,uppsp.56,,,,,,2.0,,,,,,,,,1890,,QuestPilot1,,
897,69,,survey-multi-choice,2227819.0,0.0-16.0,,409249.0,,Disagree Some,,UPPS-P,,uppsp.57,,,,,,3.0,,,,,,,,,1890,,QuestPilot1,,
898,69,,survey-multi-choice,2227819.0,0.0-16.0,,409249.0,,Disagree Strongly,,UPPS-P,,uppsp.58,,,,,,4.0,,,,,,,,,1890,,QuestPilot1,,
899,69,,survey-multi-choice,2227819.0,0.0-16.0,,409249.0,,Agree Strongly,,UPPS-P,,uppsp.59,,,,,,1.0,,,,,,,,,1890,,QuestPilot1,,
900,72,,survey-multi-choice,207531.0,0.0-2.0,,182881.0,,Moderately,,STICSA_T,,sticsa_t.1,,,,,,3.0,,,,,,,,,1891,,QuestPilot1,,
901,72,,survey-multi-choice,207531.0,0.0-2.0,,182881.0,,A little,,STICSA_T,,sticsa_t.2,,,,,,2.0,,,,,,,,,1891,,QuestPilot1,,
902,72,,survey-multi-choice,207531.0,0.0-2.0,,182881.0,,A little,,STICSA_T,,sticsa_t.3,,,,,,2.0,,,,,,,,,1891,,QuestPilot1,,
903,72,,survey-multi-choice,207531.0,0.0-2.0,,182881.0,,Very much so,,STICSA_T,,sticsa_t.4,,,,,,4.0,,,,,,,,,1891,,QuestPilot1,,
904,72,,survey-multi-choice,207531.0,0.0-2.0,,182881.0,,Moderately,,STICSA_T,,sticsa_t.5,,,,,,3.0,,,,,,,,,1891,,QuestPilot1,,
905,72,,survey-multi-choice,207531.0,0.0-2.0,,182881.0,,Moderately,,STICSA_T,,sticsa_t.6,,,,,,3.0,,,,,,,,,1891,,QuestPilot1,,
906,72,,survey-multi-choice,207531.0,0.0-2.0,,182881.0,,A little,,STICSA_T,,sticsa_t.7,,,,,,2.0,,,,,,,,,1891,,QuestPilot1,,
907,72,,survey-multi-choice,207531.0,0.0-2.0,,182881.0,,Not at all,,STICSA_T,,sticsa_t.8,,,,,,1.0,,,,,,,,,1891,,QuestPilot1,,
908,72,,survey-multi-choice,207531.0,0.0-2.0,,182881.0,,Very much so,,STICSA_T,,sticsa_t.9,,,,,,4.0,,,,,,,,,1891,,QuestPilot1,,
909,72,,survey-multi-choice,207531.0,0.0-2.0,,182881.0,,Moderately,,STICSA_T,,sticsa_t.10,,,,,,3.0,,,,,,,,,1891,,QuestPilot1,,
910,72,,survey-multi-choice,207531.0,0.0-2.0,,182881.0,,A little,,STICSA_T,,sticsa_t.11,,,,,,2.0,,,,,,,,,1891,,QuestPilot1,,
911,72,,survey-multi-choice,207531.0,0.0-2.0,,182881.0,,Very much so,,STICSA_T,,sticsa_t.12,,,,,,4.0,,,,,,,,,1891,,QuestPilot1,,
912,72,,survey-multi-choice,207531.0,0.0-2.0,,182881.0,,Not at all,,STICSA_T,,sticsa_t.13,,,,,,1.0,,,,,,,,,1891,,QuestPilot1,,
913,72,,survey-multi-choice,207531.0,0.0-2.0,,182881.0,,Moderately,,STICSA_T,,sticsa_t.14,,,,,,3.0,,,,,,,,,1891,,QuestPilot1,,
914,72,,survey-multi-choice,207531.0,0.0-2.0,,182881.0,,A little,,STICSA_T,,sticsa_t.15,,,,,,2.0,,,,,,,,,1891,,QuestPilot1,,
915,72,,survey-multi-choice,207531.0,0.0-2.0,,182881.0,,Moderately,,STICSA_T,,sticsa_t.16,,,,,,3.0,,,,,,,,,1891,,QuestPilot1,,
916,72,,survey-multi-choice,207531.0,0.0-2.0,,182881.0,,Moderately,,STICSA_T,,sticsa_t.17,,,,,,3.0,,,,,,,,,1891,,QuestPilot1,,
917,72,,survey-multi-choice,207531.0,0.0-2.0,,182881.0,,A little,,STICSA_T,,sticsa_t.18,,,,,,2.0,,,,,,,,,1891,,QuestPilot1,,
918,72,,survey-multi-choice,207531.0,0.0-2.0,,182881.0,,Moderately,,STICSA_T,,sticsa_t.19,,,,,,3.0,,,,,,,,,1891,,QuestPilot1,,
919,72,,survey-multi-choice,207531.0,0.0-2.0,,182881.0,,Not at all,,STICSA_T,,sticsa_t.20,,,,,,1.0,,,,,,,,,1891,,QuestPilot1,,
920,72,,survey-multi-choice,207531.0,0.0-2.0,,182881.0,,A little,,STICSA_T,,sticsa_t.21,,,,,,2.0,,,,,,,,,1891,,QuestPilot1,,
921,73,,survey-multi-choice,275934.0,0.0-3.0,,67337.0,,Moderate,,LSAS_A,,leb.2,,,,,,2.0,,,,,,,,,1891,,QuestPilot1,,
922,73,,survey-multi-choice,275934.0,0.0-3.0,,67337.0,,Mild,,LSAS_A,,leb.3,,,,,,1.0,,,,,,,,,1891,,QuestPilot1,,
923,73,,survey-multi-choice,275934.0,0.0-3.0,,67337.0,,Moderate,,LSAS_A,,leb.4,,,,,,2.0,,,,,,,,,1891,,QuestPilot1,,
924,73,,survey-multi-choice,275934.0,0.0-3.0,,67337.0,,Severe,,LSAS_A,,leb.13,,,,,,3.0,,,,,,,,,1891,,QuestPilot1,,
925,73,,survey-multi-choice,275934.0,0.0-3.0,,67337.0,,Mild,,LSAS_A,,leb.14,,,,,,1.0,,,,,,,,,1891,,QuestPilot1,,
926,73,,survey-multi-choice,275934.0,0.0-3.0,,67337.0,,Moderate,,LSAS_A,,leb.15,,,,,,2.0,,,,,,,,,1891,,QuestPilot1,,
927,73,,survey-multi-choice,275934.0,0.0-3.0,,67337.0,,Moderate,,LSAS_A,,leb.19,,,,,,2.0,,,,,,,,,1891,,QuestPilot1,,
928,73,,survey-multi-choice,275934.0,0.0-3.0,,67337.0,,Severe,,LSAS_A,,leb.21,,,,,,3.0,,,,,,,,,1891,,QuestPilot1,,
929,73,,survey-multi-choice,275934.0,0.0-3.0,,67337.0,,None,,LSAS_A,,leb.22,,,,,,0.0,,,,,,,,,1891,,QuestPilot1,,
930,73,,survey-multi-choice,275934.0,0.0-3.0,,67337.0,,Mild,,LSAS_A,,leb.23,,,,,,1.0,,,,,,,,,1891,,QuestPilot1,,
931,73,,survey-multi-choice,275934.0,0.0-3.0,,67337.0,,None,,LSAS_A,,leb.24,,,,,,0.0,,,,,,,,,1891,,QuestPilot1,,
932,74,,survey-multi-choice,332044.0,0.0-4.0,,55033.0,,Usually,,LSAS_B,,leb.27,,,,,,0.0,,,,,,,,,1891,,QuestPilot1,,
933,74,,survey-multi-choice,332044.0,0.0-4.0,,55033.0,,Occasionally,,LSAS_B,,leb.29,,,,,,0.0,,,,,,,,,1891,,QuestPilot1,,
934,74,,survey-multi-choice,332044.0,0.0-4.0,,55033.0,,Never,,LSAS_B,,leb.30,,,,,,0.0,,,,,,,,,1891,,QuestPilot1,,
935,74,,survey-multi-choice,332044.0,0.0-4.0,,55033.0,,Often,,LSAS_B,,leb.31,,,,,,0.0,,,,,,,,,1891,,QuestPilot1,,
936,74,,survey-multi-choice,332044.0,0.0-4.0,,55033.0,,Occasionally,,LSAS_B,,leb.32,,,,,,0.0,,,,,,,,,1891,,QuestPilot1,,
937,74,,survey-multi-choice,332044.0,0.0-4.0,,55033.0,,Often,,LSAS_B,,leb.35,,,,,,0.0,,,,,,,,,1891,,QuestPilot1,,
938,74,,survey-multi-choice,332044.0,0.0-4.0,,55033.0,,Occasionally,,LSAS_B,,leb.39,,,,,,0.0,,,,,,,,,1891,,QuestPilot1,,
939,74,,survey-multi-choice,332044.0,0.0-4.0,,55033.0,,Often,,LSAS_B,,leb.40,,,,,,0.0,,,,,,,,,1891,,QuestPilot1,,
940,74,,survey-multi-choice,332044.0,0.0-4.0,,55033.0,,Often,,LSAS_B,,leb.45,,,,,,0.0,,,,,,,,,1891,,QuestPilot1,,
941,74,,survey-multi-choice,332044.0,0.0-4.0,,55033.0,,Occasionally,,LSAS_B,,leb.46,,,,,,0.0,,,,,,,,,1891,,QuestPilot1,,
942,74,,survey-multi-choice,332044.0,0.0-4.0,,55033.0,,Occasionally,,LSAS_B,,leb.48,,,,,,0.0,,,,,,,,,1891,,QuestPilot1,,
943,75,,survey-multi-choice,454879.0,0.0-5.0,,121667.0,,Moderately,,STICSA_S,,sticsa_s.1,,,,,,3.0,,,,,,,,,1891,,QuestPilot1,,
944,75,,survey-multi-choice,454879.0,0.0-5.0,,121667.0,,A little,,STICSA_S,,sticsa_s.2,,,,,,2.0,,,,,,,,,1891,,QuestPilot1,,
945,75,,survey-multi-choice,454879.0,0.0-5.0,,121667.0,,Moderately,,STICSA_S,,sticsa_s.3,,,,,,3.0,,,,,,,,,1891,,QuestPilot1,,
946,75,,survey-multi-choice,454879.0,0.0-5.0,,121667.0,,A little,,STICSA_S,,sticsa_s.4,,,,,,2.0,,,,,,,,,1891,,QuestPilot1,,
947,75,,survey-multi-choice,454879.0,0.0-5.0,,121667.0,,Moderately,,STICSA_S,,sticsa_s.5,,,,,,3.0,,,,,,,,,1891,,QuestPilot1,,
948,75,,survey-multi-choice,454879.0,0.0-5.0,,121667.0,,Not at all,,STICSA_S,,sticsa_s.6,,,,,,1.0,,,,,,,,,1891,,QuestPilot1,,
949,75,,survey-multi-choice,454879.0,0.0-5.0,,121667.0,,A little,,STICSA_S,,sticsa_s.7,,,,,,2.0,,,,,,,,,1891,,QuestPilot1,,
950,75,,survey-multi-choice,454879.0,0.0-5.0,,121667.0,,Moderately,,STICSA_S,,sticsa_s.8,,,,,,3.0,,,,,,,,,1891,,QuestPilot1,,
951,75,,survey-multi-choice,454879.0,0.0-5.0,,121667.0,,Moderately,,STICSA_S,,sticsa_s.9,,,,,,3.0,,,,,,,,,1891,,QuestPilot1,,
952,75,,survey-multi-choice,454879.0,0.0-5.0,,121667.0,,A little,,STICSA_S,,sticsa_s.10,,,,,,2.0,,,,,,,,,1891,,QuestPilot1,,
953,75,,survey-multi-choice,454879.0,0.0-5.0,,121667.0,,Moderately,,STICSA_S,,sticsa_s.11,,,,,,3.0,,,,,,,,,1891,,QuestPilot1,,
954,75,,survey-multi-choice,454879.0,0.0-5.0,,121667.0,,Not at all,,STICSA_S,,sticsa_s.12,,,,,,1.0,,,,,,,,,1891,,QuestPilot1,,
955,75,,survey-multi-choice,454879.0,0.0-5.0,,121667.0,,Not at all,,STICSA_S,,sticsa_s.13,,,,,,1.0,,,,,,,,,1891,,QuestPilot1,,
956,75,,survey-multi-choice,454879.0,0.0-5.0,,121667.0,,Moderately,,STICSA_S,,sticsa_s.14,,,,,,3.0,,,,,,,,,1891,,QuestPilot1,,
957,75,,survey-multi-choice,454879.0,0.0-5.0,,121667.0,,A little,,STICSA_S,,sticsa_s.15,,,,,,2.0,,,,,,,,,1891,,QuestPilot1,,
958,75,,survey-multi-choice,454879.0,0.0-5.0,,121667.0,,A little,,STICSA_S,,sticsa_s.16,,,,,,2.0,,,,,,,,,1891,,QuestPilot1,,
959,75,,survey-multi-choice,454879.0,0.0-5.0,,121667.0,,Moderately,,STICSA_S,,sticsa_s.17,,,,,,3.0,,,,,,,,,1891,,QuestPilot1,,
960,75,,survey-multi-choice,454879.0,0.0-5.0,,121667.0,,A little,,STICSA_S,,sticsa_s.18,,,,,,2.0,,,,,,,,,1891,,QuestPilot1,,
961,75,,survey-multi-choice,454879.0,0.0-5.0,,121667.0,,Moderately,,STICSA_S,,sticsa_s.19,,,,,,3.0,,,,,,,,,1891,,QuestPilot1,,
962,75,,survey-multi-choice,454879.0,0.0-5.0,,121667.0,,Moderately,,STICSA_S,,sticsa_s.20,,,,,,3.0,,,,,,,,,1891,,QuestPilot1,,
963,75,,survey-multi-choice,454879.0,0.0-5.0,,121667.0,,A little,,STICSA_S,,sticsa_s.21,,,,,,2.0,,,,,,,,,1891,,QuestPilot1,,
964,76,,survey-multi-choice,478762.0,0.0-6.0,,22866.0,,2-3 times a week,,AUDIT,,alcohol.1,,,,,,0.0,,,,,,,,,1891,,QuestPilot1,,
965,77,,survey-multi-choice,500836.0,0.0-7.0,,21022.0,,Somewhat,,AES,,apathy.2,,,,,,3.0,,,,,,,,,1891,,QuestPilot1,,
966,77,,survey-multi-choice,500836.0,0.0-7.0,,21022.0,,Slightly,,AES,,apathy.7,,,,,,2.0,,,,,,,,,1891,,QuestPilot1,,
967,77,,survey-multi-choice,500836.0,0.0-7.0,,21022.0,,Somewhat,,AES,,apathy.17,,,,,,3.0,,,,,,,,,1891,,QuestPilot1,,
968,77,,survey-multi-choice,500836.0,0.0-7.0,,21022.0,,A lot,,AES,,apathy.18,,,,,,4.0,,,,,,,,,1891,,QuestPilot1,,
969,78,,survey-multi-choice,535163.0,0.0-8.0,,33283.0,,Rarely,,EAT,,eat.1,,,,,,0.0,,,,,,,,,1891,,QuestPilot1,,
970,78,,survey-multi-choice,535163.0,0.0-8.0,,33283.0,,Usually,,EAT,,eat.11,,,,,,2.0,,,,,,,,,1891,,QuestPilot1,,
971,78,,survey-multi-choice,535163.0,0.0-8.0,,33283.0,,Always,,EAT,,eat.12,,,,,,3.0,,,,,,,,,1891,,QuestPilot1,,
972,78,,survey-multi-choice,535163.0,0.0-8.0,,33283.0,,Rarely,,EAT,,eat.14,,,,,,0.0,,,,,,,,,1891,,QuestPilot1,,
973,79,,survey-multi-choice,644999.0,0.0-9.0,,108710.0,,Somewhat characteristic of me,,IUS_12,,ius.1,,,,,,3.0,,,,,,,,,1891,,QuestPilot1,,
974,79,,survey-multi-choice,644999.0,0.0-9.0,,108710.0,,A little characteristic of me,,IUS_12,,ius.2,,,,,,2.0,,,,,,,,,1891,,QuestPilot1,,
975,79,,survey-multi-choice,644999.0,0.0-9.0,,108710.0,,Very characteristic of me,,IUS_12,,ius.3,,,,,,4.0,,,,,,,,,1891,,QuestPilot1,,
976,79,,survey-multi-choice,644999.0,0.0-9.0,,108710.0,,Somewhat characteristic of me,,IUS_12,,ius.4,,,,,,3.0,,,,,,,,,1891,,QuestPilot1,,
977,79,,survey-multi-choice,644999.0,0.0-9.0,,108710.0,,Somewhat characteristic of me,,IUS_12,,ius.5,,,,,,3.0,,,,,,,,,1891,,QuestPilot1,,
978,79,,survey-multi-choice,644999.0,0.0-9.0,,108710.0,,Not at all characteristic of me,,IUS_12,,ius.6,,,,,,1.0,,,,,,,,,1891,,QuestPilot1,,
979,79,,survey-multi-choice,644999.0,0.0-9.0,,108710.0,,Not at all characteristic of me,,IUS_12,,ius.7,,,,,,1.0,,,,,,,,,1891,,QuestPilot1,,
980,79,,survey-multi-choice,644999.0,0.0-9.0,,108710.0,,Very characteristic of me,,IUS_12,,ius.8,,,,,,4.0,,,,,,,,,1891,,QuestPilot1,,
981,79,,survey-multi-choice,644999.0,0.0-9.0,,108710.0,,Somewhat characteristic of me,,IUS_12,,ius.9,,,,,,3.0,,,,,,,,,1891,,QuestPilot1,,
982,79,,survey-multi-choice,644999.0,0.0-9.0,,108710.0,,A little characteristic of me,,IUS_12,,ius.10,,,,,,2.0,,,,,,,,,1891,,QuestPilot1,,
983,79,,survey-multi-choice,644999.0,0.0-9.0,,108710.0,,Very characteristic of me,,IUS_12,,ius.11,,,,,,4.0,,,,,,,,,1891,,QuestPilot1,,
984,79,,survey-multi-choice,644999.0,0.0-9.0,,108710.0,,Entirely characteristic of me,,IUS_12,,ius.12,,,,,,5.0,,,,,,,,,1891,,QuestPilot1,,
985,80,,survey-multi-choice,693008.0,0.0-10.0,,46929.0,,Almost always,,STAI,,anxiety.1,,,,,,4.0,,,,,,,,,1891,,QuestPilot1,,
986,80,,survey-multi-choice,693008.0,0.0-10.0,,46929.0,,Almost always,,STAI,,anxiety.3,,,,,,4.0,,,,,,,,,1891,,QuestPilot1,,
987,80,,survey-multi-choice,693008.0,0.0-10.0,,46929.0,,Sometimes,,STAI,,anxiety.5,,,,,,2.0,,,,,,,,,1891,,QuestPilot1,,
988,80,,survey-multi-choice,693008.0,0.0-10.0,,46929.0,,Often,,STAI,,anxiety.8,,,,,,3.0,,,,,,,,,1891,,QuestPilot1,,
989,80,,survey-multi-choice,693008.0,0.0-10.0,,46929.0,,Sometimes,,STAI,,anxiety.9,,,,,,2.0,,,,,,,,,1891,,QuestPilot1,,
990,80,,survey-multi-choice,693008.0,0.0-10.0,,46929.0,,Almost always,,STAI,,anxiety.10,,,,,,4.0,,,,,,,,,1891,,QuestPilot1,,
991,80,,survey-multi-choice,693008.0,0.0-10.0,,46929.0,,Almost never,,STAI,,anxiety.12,,,,,,1.0,,,,,,,,,1891,,QuestPilot1,,
992,80,,survey-multi-choice,693008.0,0.0-10.0,,46929.0,,Often,,STAI,,anxiety.13,,,,,,3.0,,,,,,,,,1891,,QuestPilot1,,
993,80,,survey-multi-choice,693008.0,0.0-10.0,,46929.0,,Sometimes,,STAI,,anxiety.16,,,,,,2.0,,,,,,,,,1891,,QuestPilot1,,
994,80,,survey-multi-choice,693008.0,0.0-10.0,,46929.0,,Almost always,,STAI,,anxiety.19,,,,,,4.0,,,,,,,,,1891,,QuestPilot1,,
995,80,,survey-multi-choice,693008.0,0.0-10.0,,46929.0,,Sometimes,,STAI,,anxiety.20,,,,,,2.0,,,,,,,,,1891,,QuestPilot1,,
996,81,,survey-multi-choice,769406.0,0.0-11.0,,75321.0,,Almost always/Always,,BIS,,bis.1,,,,,,4.0,,,,,,,,,1891,,QuestPilot1,,
997,81,,survey-multi-choice,769406.0,0.0-11.0,,75321.0,,Rarely/Never,,BIS,,bis.6,,,,,,1.0,,,,,,,,,1891,,QuestPilot1,,
998,81,,survey-multi-choice,769406.0,0.0-11.0,,75321.0,,Often,,BIS,,bis.9,,,,,,3.0,,,,,,,,,1891,,QuestPilot1,,
999,81,,survey-multi-choice,769406.0,0.0-11.0,,75321.0,,Almost always/Always,,BIS,,bis.13,,,,,,4.0,,,,,,,,,1891,,QuestPilot1,,
1000,81,,survey-multi-choice,769406.0,0.0-11.0,,75321.0,,Occasionally,,BIS,,bis.14,,,,,,2.0,,,,,,,,,1891,,QuestPilot1,,
1001,81,,survey-multi-choice,769406.0,0.0-11.0,,75321.0,,Almost always/Always,,BIS,,bis.15,,,,,,4.0,,,,,,,,,1891,,QuestPilot1,,
1002,81,,survey-multi-choice,769406.0,0.0-11.0,,75321.0,,Rarely/Never,,BIS,,bis.17,,,,,,1.0,,,,,,,,,1891,,QuestPilot1,,
1003,81,,survey-multi-choice,769406.0,0.0-11.0,,75321.0,,Almost always/Always,,BIS,,bis.20,,,,,,4.0,,,,,,,,,1891,,QuestPilot1,,
1004,81,,survey-multi-choice,769406.0,0.0-11.0,,75321.0,,Occasionally,,BIS,,bis.22,,,,,,2.0,,,,,,,,,1891,,QuestPilot1,,
1005,81,,survey-multi-choice,769406.0,0.0-11.0,,75321.0,,Rarely/Never,,BIS,,bis.25,,,,,,1.0,,,,,,,,,1891,,QuestPilot1,,
1006,81,,survey-multi-choice,769406.0,0.0-11.0,,75321.0,,Occasionally,,BIS,,bis.26,,,,,,2.0,,,,,,,,,1891,,QuestPilot1,,
1007,82,,survey-multi-choice,812376.0,0.0-12.0,,41913.0,,Good part of the time,,Zhung,,zung.11,,,,,,3.0,,,,,,,,,1891,,QuestPilot1,,
1008,82,,survey-multi-choice,812376.0,0.0-12.0,,41913.0,,Some of the time,,Zhung,,zung.12,,,,,,2.0,,,,,,,,,1891,,QuestPilot1,,
1009,82,,survey-multi-choice,812376.0,0.0-12.0,,41913.0,,A little of the time,,Zhung,,zung.13,,,,,,1.0,,,,,,,,,1891,,QuestPilot1,,
1010,82,,survey-multi-choice,812376.0,0.0-12.0,,41913.0,,Most of the time,,Zhung,,zung.14,,,,,,4.0,,,,,,,,,1891,,QuestPilot1,,
1011,82,,survey-multi-choice,812376.0,0.0-12.0,,41913.0,,Good part of the time,,Zhung,,zung.16,,,,,,3.0,,,,,,,,,1891,,QuestPilot1,,
1012,82,,survey-multi-choice,812376.0,0.0-12.0,,41913.0,,Good part of the time,,Zhung,,zung.17,,,,,,3.0,,,,,,,,,1891,,QuestPilot1,,
1013,82,,survey-multi-choice,812376.0,0.0-12.0,,41913.0,,Good part of the time,,Zhung,,zung.18,,,,,,3.0,,,,,,,,,1891,,QuestPilot1,,
1014,82,,survey-multi-choice,812376.0,0.0-12.0,,41913.0,,Most of the time,,Zhung,,zung.20,,,,,,4.0,,,,,,,,,1891,,QuestPilot1,,
1015,83,,survey-multi-choice,889312.0,0.0-13.0,,75857.0,,A little,,OCIR,,ocir.1,,,,,,1.0,,,,,,,,,1891,,QuestPilot1,,
1016,83,,survey-multi-choice,889312.0,0.0-13.0,,75857.0,,Moderately,,OCIR,,ocir.2,,,,,,2.0,,,,,,,,,1891,,QuestPilot1,,
1017,83,,survey-multi-choice,889312.0,0.0-13.0,,75857.0,,Not at all,,OCIR,,ocir.4,,,,,,0.0,,,,,,,,,1891,,QuestPilot1,,
1018,83,,survey-multi-choice,889312.0,0.0-13.0,,75857.0,,A lot,,OCIR,,ocir.6,,,,,,3.0,,,,,,,,,1891,,QuestPilot1,,
1019,83,,survey-multi-choice,889312.0,0.0-13.0,,75857.0,,A little,,OCIR,,ocir.7,,,,,,1.0,,,,,,,,,1891,,QuestPilot1,,
1020,83,,survey-multi-choice,889312.0,0.0-13.0,,75857.0,,A little,,OCIR,,ocir.9,,,,,,1.0,,,,,,,,,1891,,QuestPilot1,,
1021,83,,survey-multi-choice,889312.0,0.0-13.0,,75857.0,,A lot,,OCIR,,ocir.11,,,,,,3.0,,,,,,,,,1891,,QuestPilot1,,
1022,83,,survey-multi-choice,889312.0,0.0-13.0,,75857.0,,Moderately,,OCIR,,ocir.12,,,,,,2.0,,,,,,,,,1891,,QuestPilot1,,
1023,83,,survey-multi-choice,889312.0,0.0-13.0,,75857.0,,Not at all,,OCIR,,ocir.13,,,,,,0.0,,,,,,,,,1891,,QuestPilot1,,
1024,83,,survey-multi-choice,889312.0,0.0-13.0,,75857.0,,A little,,OCIR,,ocir.16,,,,,,1.0,,,,,,,,,1891,,QuestPilot1,,
1025,83,,survey-multi-choice,889312.0,0.0-13.0,,75857.0,,Moderately,,OCIR,,ocir.18,,,,,,2.0,,,,,,,,,1891,,QuestPilot1,,
1026,84,,survey-multi-choice,1128220.0,0.0-14.0,,237779.0,,smaller reward today,,MCQ,,mcq.1,,,,,,0.0,,,,,,,,,1891,,QuestPilot1,,
1027,84,,survey-multi-choice,1128220.0,0.0-14.0,,237779.0,,larger reward in the specified number of days,,MCQ,,mcq.2,,,,,,0.0,,,,,,,,,1891,,QuestPilot1,,
1028,84,,survey-multi-choice,1128220.0,0.0-14.0,,237779.0,,smaller reward today,,MCQ,,mcq.3,,,,,,0.0,,,,,,,,,1891,,QuestPilot1,,
1029,84,,survey-multi-choice,1128220.0,0.0-14.0,,237779.0,,larger reward in the specified number of days,,MCQ,,mcq.4,,,,,,0.0,,,,,,,,,1891,,QuestPilot1,,
1030,84,,survey-multi-choice,1128220.0,0.0-14.0,,237779.0,,larger reward in the specified number of days,,MCQ,,mcq.5,,,,,,0.0,,,,,,,,,1891,,QuestPilot1,,
1031,84,,survey-multi-choice,1128220.0,0.0-14.0,,237779.0,,smaller reward today,,MCQ,,mcq.6,,,,,,0.0,,,,,,,,,1891,,QuestPilot1,,
1032,84,,survey-multi-choice,1128220.0,0.0-14.0,,237779.0,,larger reward in the specified number of days,,MCQ,,mcq.7,,,,,,0.0,,,,,,,,,1891,,QuestPilot1,,
1033,84,,survey-multi-choice,1128220.0,0.0-14.0,,237779.0,,larger reward in the specified number of days,,MCQ,,mcq.8,,,,,,0.0,,,,,,,,,1891,,QuestPilot1,,
1034,84,,survey-multi-choice,1128220.0,0.0-14.0,,237779.0,,smaller reward today,,MCQ,,mcq.9,,,,,,0.0,,,,,,,,,1891,,QuestPilot1,,
1035,84,,survey-multi-choice,1128220.0,0.0-14.0,,237779.0,,smaller reward today,,MCQ,,mcq.10,,,,,,0.0,,,,,,,,,1891,,QuestPilot1,,
1036,84,,survey-multi-choice,1128220.0,0.0-14.0,,237779.0,,larger reward in the specified number of days,,MCQ,,mcq.11,,,,,,0.0,,,,,,,,,1891,,QuestPilot1,,
1037,84,,survey-multi-choice,1128220.0,0.0-14.0,,237779.0,,smaller reward today,,MCQ,,mcq.12,,,,,,0.0,,,,,,,,,1891,,QuestPilot1,,
1038,84,,survey-multi-choice,1128220.0,0.0-14.0,,237779.0,,larger reward in the specified number of days,,MCQ,,mcq.13,,,,,,0.0,,,,,,,,,1891,,QuestPilot1,,
1039,84,,survey-multi-choice,1128220.0,0.0-14.0,,237779.0,,smaller reward today,,MCQ,,mcq.14,,,,,,0.0,,,,,,,,,1891,,QuestPilot1,,
1040,84,,survey-multi-choice,1128220.0,0.0-14.0,,237779.0,,smaller reward today,,MCQ,,mcq.15,,,,,,0.0,,,,,,,,,1891,,QuestPilot1,,
1041,84,,survey-multi-choice,1128220.0,0.0-14.0,,237779.0,,smaller reward today,,MCQ,,mcq.16,,,,,,0.0,,,,,,,,,1891,,QuestPilot1,,
1042,84,,survey-multi-choice,1128220.0,0.0-14.0,,237779.0,,smaller reward today,,MCQ,,mcq.17,,,,,,0.0,,,,,,,,,1891,,QuestPilot1,,
1043,84,,survey-multi-choice,1128220.0,0.0-14.0,,237779.0,,smaller reward today,,MCQ,,mcq.18,,,,,,0.0,,,,,,,,,1891,,QuestPilot1,,
1044,84,,survey-multi-choice,1128220.0,0.0-14.0,,237779.0,,larger reward in the specified number of days,,MCQ,,mcq.19,,,,,,0.0,,,,,,,,,1891,,QuestPilot1,,
1045,84,,survey-multi-choice,1128220.0,0.0-14.0,,237779.0,,smaller reward today,,MCQ,,mcq.20,,,,,,0.0,,,,,,,,,1891,,QuestPilot1,,
1046,84,,survey-multi-choice,1128220.0,0.0-14.0,,237779.0,,smaller reward today,,MCQ,,mcq.21,,,,,,0.0,,,,,,,,,1891,,QuestPilot1,,
1047,84,,survey-multi-choice,1128220.0,0.0-14.0,,237779.0,,smaller reward today,,MCQ,,mcq.22,,,,,,0.0,,,,,,,,,1891,,QuestPilot1,,
1048,84,,survey-multi-choice,1128220.0,0.0-14.0,,237779.0,,larger reward in the specified number of days,,MCQ,,mcq.23,,,,,,0.0,,,,,,,,,1891,,QuestPilot1,,
1049,84,,survey-multi-choice,1128220.0,0.0-14.0,,237779.0,,smaller reward today,,MCQ,,mcq.24,,,,,,0.0,,,,,,,,,1891,,QuestPilot1,,
1050,84,,survey-multi-choice,1128220.0,0.0-14.0,,237779.0,,smaller reward today,,MCQ,,mcq.25,,,,,,0.0,,,,,,,,,1891,,QuestPilot1,,
1051,84,,survey-multi-choice,1128220.0,0.0-14.0,,237779.0,,smaller reward today,,MCQ,,mcq.26,,,,,,0.0,,,,,,,,,1891,,QuestPilot1,,
1052,84,,survey-multi-choice,1128220.0,0.0-14.0,,237779.0,,larger reward in the specified number of days,,MCQ,,mcq.27,,,,,,0.0,,,,,,,,,1891,,QuestPilot1,,
1053,85,,survey-multi-choice,1218433.0,0.0-15.0,,89115.0,,Somewhat characteristic,,CFC,,cfc.1,,,,,,4.0,,,,,,,,,1891,,QuestPilot1,,
1054,85,,survey-multi-choice,1218433.0,0.0-15.0,,89115.0,,Uncertain,,CFC,,cfc.2,,,,,,3.0,,,,,,,,,1891,,QuestPilot1,,
1055,85,,survey-multi-choice,1218433.0,0.0-15.0,,89115.0,,Somewhat uncharacteristic,,CFC,,cfc.3,,,,,,2.0,,,,,,,,,1891,,QuestPilot1,,
1056,85,,survey-multi-choice,1218433.0,0.0-15.0,,89115.0,,Somewhat characteristic,,CFC,,cfc.4,,,,,,4.0,,,,,,,,,1891,,QuestPilot1,,
1057,85,,survey-multi-choice,1218433.0,0.0-15.0,,89115.0,,Somewhat uncharacteristic,,CFC,,cfc.5,,,,,,2.0,,,,,,,,,1891,,QuestPilot1,,
1058,85,,survey-multi-choice,1218433.0,0.0-15.0,,89115.0,,Somewhat uncharacteristic,,CFC,,cfc.6,,,,,,2.0,,,,,,,,,1891,,QuestPilot1,,
1059,85,,survey-multi-choice,1218433.0,0.0-15.0,,89115.0,,Uncertain,,CFC,,cfc.7,,,,,,3.0,,,,,,,,,1891,,QuestPilot1,,
1060,85,,survey-multi-choice,1218433.0,0.0-15.0,,89115.0,,Somewhat characteristic,,CFC,,cfc.8,,,,,,4.0,,,,,,,,,1891,,QuestPilot1,,
1061,85,,survey-multi-choice,1218433.0,0.0-15.0,,89115.0,,Uncertain,,CFC,,cfc.9,,,,,,3.0,,,,,,,,,1891,,QuestPilot1,,
1062,85,,survey-multi-choice,1218433.0,0.0-15.0,,89115.0,,Uncertain,,CFC,,cfc.10,,,,,,3.0,,,,,,,,,1891,,QuestPilot1,,
1063,85,,survey-multi-choice,1218433.0,0.0-15.0,,89115.0,,Somewhat characteristic,,CFC,,cfc.11,,,,,,4.0,,,,,,,,,1891,,QuestPilot1,,
1064,85,,survey-multi-choice,1218433.0,0.0-15.0,,89115.0,,Extremely characteristic,,CFC,,cfc.12,,,,,,5.0,,,,,,,,,1891,,QuestPilot1,,
1065,86,,survey-multi-choice,1670757.0,0.0-16.0,,450995.0,,Agree Some,,UPPS-P,,uppsp.1,,,,,,2.0,,,,,,,,,1891,,QuestPilot1,,
1066,86,,survey-multi-choice,1670757.0,0.0-16.0,,450995.0,,Disagree Some,,UPPS-P,,uppsp.2,,,,,,3.0,,,,,,,,,1891,,QuestPilot1,,
1067,86,,survey-multi-choice,1670757.0,0.0-16.0,,450995.0,,Agree Strongly,,UPPS-P,,uppsp.3,,,,,,1.0,,,,,,,,,1891,,QuestPilot1,,
1068,86,,survey-multi-choice,1670757.0,0.0-16.0,,450995.0,,Agree Strongly,,UPPS-P,,uppsp.4,,,,,,1.0,,,,,,,,,1891,,QuestPilot1,,
1069,86,,survey-multi-choice,1670757.0,0.0-16.0,,450995.0,,Disagree Some,,UPPS-P,,uppsp.5,,,,,,3.0,,,,,,,,,1891,,QuestPilot1,,
1070,86,,survey-multi-choice,1670757.0,0.0-16.0,,450995.0,,Agree Strongly,,UPPS-P,,uppsp.6,,,,,,1.0,,,,,,,,,1891,,QuestPilot1,,
1071,86,,survey-multi-choice,1670757.0,0.0-16.0,,450995.0,,Disagree Some,,UPPS-P,,uppsp.7,,,,,,3.0,,,,,,,,,1891,,QuestPilot1,,
1072,86,,survey-multi-choice,1670757.0,0.0-16.0,,450995.0,,Disagree Strongly,,UPPS-P,,uppsp.8,,,,,,4.0,,,,,,,,,1891,,QuestPilot1,,
1073,86,,survey-multi-choice,1670757.0,0.0-16.0,,450995.0,,Agree Some,,UPPS-P,,uppsp.9,,,,,,2.0,,,,,,,,,1891,,QuestPilot1,,
1074,86,,survey-multi-choice,1670757.0,0.0-16.0,,450995.0,,Agree Some,,UPPS-P,,uppsp.10,,,,,,2.0,,,,,,,,,1891,,QuestPilot1,,
1075,86,,survey-multi-choice,1670757.0,0.0-16.0,,450995.0,,Agree Some,,UPPS-P,,uppsp.11,,,,,,2.0,,,,,,,,,1891,,QuestPilot1,,
1076,86,,survey-multi-choice,1670757.0,0.0-16.0,,450995.0,,Agree Strongly,,UPPS-P,,uppsp.12,,,,,,1.0,,,,,,,,,1891,,QuestPilot1,,
1077,86,,survey-multi-choice,1670757.0,0.0-16.0,,450995.0,,Agree Some,,UPPS-P,,uppsp.13,,,,,,2.0,,,,,,,,,1891,,QuestPilot1,,
1078,86,,survey-multi-choice,1670757.0,0.0-16.0,,450995.0,,Disagree Strongly,,UPPS-P,,uppsp.14,,,,,,4.0,,,,,,,,,1891,,QuestPilot1,,
1079,86,,survey-multi-choice,1670757.0,0.0-16.0,,450995.0,,Agree Some,,UPPS-P,,uppsp.15,,,,,,2.0,,,,,,,,,1891,,QuestPilot1,,
1080,86,,survey-multi-choice,1670757.0,0.0-16.0,,450995.0,,Agree Some,,UPPS-P,,uppsp.16,,,,,,2.0,,,,,,,,,1891,,QuestPilot1,,
1081,86,,survey-multi-choice,1670757.0,0.0-16.0,,450995.0,,Agree Some,,UPPS-P,,uppsp.17,,,,,,2.0,,,,,,,,,1891,,QuestPilot1,,
1082,86,,survey-multi-choice,1670757.0,0.0-16.0,,450995.0,,Agree Strongly,,UPPS-P,,uppsp.18,,,,,,1.0,,,,,,,,,1891,,QuestPilot1,,
1083,86,,survey-multi-choice,1670757.0,0.0-16.0,,450995.0,,Agree Strongly,,UPPS-P,,uppsp.19,,,,,,1.0,,,,,,,,,1891,,QuestPilot1,,
1084,86,,survey-multi-choice,1670757.0,0.0-16.0,,450995.0,,Disagree Some,,UPPS-P,,uppsp.20,,,,,,3.0,,,,,,,,,1891,,QuestPilot1,,
1085,86,,survey-multi-choice,1670757.0,0.0-16.0,,450995.0,,Disagree Some,,UPPS-P,,uppsp.21,,,,,,3.0,,,,,,,,,1891,,QuestPilot1,,
1086,86,,survey-multi-choice,1670757.0,0.0-16.0,,450995.0,,Agree Some,,UPPS-P,,uppsp.22,,,,,,2.0,,,,,,,,,1891,,QuestPilot1,,
1087,86,,survey-multi-choice,1670757.0,0.0-16.0,,450995.0,,Disagree Strongly,,UPPS-P,,uppsp.23,,,,,,4.0,,,,,,,,,1891,,QuestPilot1,,
1088,86,,survey-multi-choice,1670757.0,0.0-16.0,,450995.0,,Agree Some,,UPPS-P,,uppsp.24,,,,,,2.0,,,,,,,,,1891,,QuestPilot1,,
1089,86,,survey-multi-choice,1670757.0,0.0-16.0,,450995.0,,Agree Some,,UPPS-P,,uppsp.25,,,,,,2.0,,,,,,,,,1891,,QuestPilot1,,
1090,86,,survey-multi-choice,1670757.0,0.0-16.0,,450995.0,,Disagree Strongly,,UPPS-P,,uppsp.26,,,,,,4.0,,,,,,,,,1891,,QuestPilot1,,
1091,86,,survey-multi-choice,1670757.0,0.0-16.0,,450995.0,,Agree Strongly,,UPPS-P,,uppsp.27,,,,,,1.0,,,,,,,,,1891,,QuestPilot1,,
1092,86,,survey-multi-choice,1670757.0,0.0-16.0,,450995.0,,Disagree Some,,UPPS-P,,uppsp.28,,,,,,3.0,,,,,,,,,1891,,QuestPilot1,,
1093,86,,survey-multi-choice,1670757.0,0.0-16.0,,450995.0,,Agree Some,,UPPS-P,,uppsp.29,,,,,,2.0,,,,,,,,,1891,,QuestPilot1,,
1094,86,,survey-multi-choice,1670757.0,0.0-16.0,,450995.0,,Agree Some,,UPPS-P,,catch.2,,,,,,0.0,,,,,,,,,1891,,QuestPilot1,,
1095,86,,survey-multi-choice,1670757.0,0.0-16.0,,450995.0,,Disagree Some,,UPPS-P,,uppsp.30,,,,,,3.0,,,,,,,,,1891,,QuestPilot1,,
1096,86,,survey-multi-choice,1670757.0,0.0-16.0,,450995.0,,Agree Some,,UPPS-P,,uppsp.31,,,,,,2.0,,,,,,,,,1891,,QuestPilot1,,
1097,86,,survey-multi-choice,1670757.0,0.0-16.0,,450995.0,,Disagree Some,,UPPS-P,,uppsp.32,,,,,,3.0,,,,,,,,,1891,,QuestPilot1,,
1098,86,,survey-multi-choice,1670757.0,0.0-16.0,,450995.0,,Agree Some,,UPPS-P,,uppsp.33,,,,,,2.0,,,,,,,,,1891,,QuestPilot1,,
1099,86,,survey-multi-choice,1670757.0,0.0-16.0,,450995.0,,Agree Strongly,,UPPS-P,,uppsp.34,,,,,,1.0,,,,,,,,,1891,,QuestPilot1,,
1100,86,,survey-multi-choice,1670757.0,0.0-16.0,,450995.0,,Disagree Some,,UPPS-P,,uppsp.35,,,,,,3.0,,,,,,,,,1891,,QuestPilot1,,
1101,86,,survey-multi-choice,1670757.0,0.0-16.0,,450995.0,,Disagree Some,,UPPS-P,,uppsp.36,,,,,,3.0,,,,,,,,,1891,,QuestPilot1,,
1102,86,,survey-multi-choice,1670757.0,0.0-16.0,,450995.0,,Agree Some,,UPPS-P,,uppsp.37,,,,,,2.0,,,,,,,,,1891,,QuestPilot1,,
1103,86,,survey-multi-choice,1670757.0,0.0-16.0,,450995.0,,Disagree Some,,UPPS-P,,uppsp.38,,,,,,3.0,,,,,,,,,1891,,QuestPilot1,,
1104,86,,survey-multi-choice,1670757.0,0.0-16.0,,450995.0,,Disagree Strongly,,UPPS-P,,uppsp.39,,,,,,4.0,,,,,,,,,1891,,QuestPilot1,,
1105,86,,survey-multi-choice,1670757.0,0.0-16.0,,450995.0,,Agree Some,,UPPS-P,,uppsp.40,,,,,,2.0,,,,,,,,,1891,,QuestPilot1,,
1106,86,,survey-multi-choice,1670757.0,0.0-16.0,,450995.0,,Agree Some,,UPPS-P,,uppsp.41,,,,,,2.0,,,,,,,,,1891,,QuestPilot1,,
1107,86,,survey-multi-choice,1670757.0,0.0-16.0,,450995.0,,Agree Some,,UPPS-P,,uppsp.42,,,,,,2.0,,,,,,,,,1891,,QuestPilot1,,
1108,86,,survey-multi-choice,1670757.0,0.0-16.0,,450995.0,,Agree Some,,UPPS-P,,uppsp.43,,,,,,2.0,,,,,,,,,1891,,QuestPilot1,,
1109,86,,survey-multi-choice,1670757.0,0.0-16.0,,450995.0,,Disagree Some,,UPPS-P,,uppsp.44,,,,,,3.0,,,,,,,,,1891,,QuestPilot1,,
1110,86,,survey-multi-choice,1670757.0,0.0-16.0,,450995.0,,Agree Some,,UPPS-P,,uppsp.45,,,,,,2.0,,,,,,,,,1891,,QuestPilot1,,
1111,86,,survey-multi-choice,1670757.0,0.0-16.0,,450995.0,,Disagree Strongly,,UPPS-P,,uppsp.46,,,,,,4.0,,,,,,,,,1891,,QuestPilot1,,
1112,86,,survey-multi-choice,1670757.0,0.0-16.0,,450995.0,,Agree Strongly,,UPPS-P,,uppsp.47,,,,,,1.0,,,,,,,,,1891,,QuestPilot1,,
1113,86,,survey-multi-choice,1670757.0,0.0-16.0,,450995.0,,Agree Strongly,,UPPS-P,,uppsp.48,,,,,,1.0,,,,,,,,,1891,,QuestPilot1,,
1114,86,,survey-multi-choice,1670757.0,0.0-16.0,,450995.0,,Disagree Some,,UPPS-P,,uppsp.49,,,,,,3.0,,,,,,,,,1891,,QuestPilot1,,
1115,86,,survey-multi-choice,1670757.0,0.0-16.0,,450995.0,,Agree Some,,UPPS-P,,uppsp.50,,,,,,2.0,,,,,,,,,1891,,QuestPilot1,,
1116,86,,survey-multi-choice,1670757.0,0.0-16.0,,450995.0,,Disagree Some,,UPPS-P,,uppsp.51,,,,,,3.0,,,,,,,,,1891,,QuestPilot1,,
1117,86,,survey-multi-choice,1670757.0,0.0-16.0,,450995.0,,Agree Strongly,,UPPS-P,,uppsp.52,,,,,,1.0,,,,,,,,,1891,,QuestPilot1,,
1118,86,,survey-multi-choice,1670757.0,0.0-16.0,,450995.0,,Agree Strongly,,UPPS-P,,uppsp.53,,,,,,1.0,,,,,,,,,1891,,QuestPilot1,,
1119,86,,survey-multi-choice,1670757.0,0.0-16.0,,450995.0,,Agree Some,,UPPS-P,,uppsp.54,,,,,,2.0,,,,,,,,,1891,,QuestPilot1,,
1120,86,,survey-multi-choice,1670757.0,0.0-16.0,,450995.0,,Agree Strongly,,UPPS-P,,uppsp.55,,,,,,1.0,,,,,,,,,1891,,QuestPilot1,,
1121,86,,survey-multi-choice,1670757.0,0.0-16.0,,450995.0,,Agree Some,,UPPS-P,,uppsp.56,,,,,,2.0,,,,,,,,,1891,,QuestPilot1,,
1122,86,,survey-multi-choice,1670757.0,0.0-16.0,,450995.0,,Disagree Some,,UPPS-P,,uppsp.57,,,,,,3.0,,,,,,,,,1891,,QuestPilot1,,
1123,86,,survey-multi-choice,1670757.0,0.0-16.0,,450995.0,,Agree Some,,UPPS-P,,uppsp.58,,,,,,2.0,,,,,,,,,1891,,QuestPilot1,,
1124,86,,survey-multi-choice,1670757.0,0.0-16.0,,450995.0,,Agree Strongly,,UPPS-P,,uppsp.59,,,,,,1.0,,,,,,,,,1891,,QuestPilot1,,
1125,91,,survey-multi-choice,29310.0,0.0-2.0,,21533.0,,Moderately,,STICSA_T,,sticsa_t.1,,,,,,3.0,,,,,,,,,1892,,QuestPilot1,,
1126,91,,survey-multi-choice,29310.0,0.0-2.0,,21533.0,,A little,,STICSA_T,,sticsa_t.2,,,,,,2.0,,,,,,,,,1892,,QuestPilot1,,
1127,91,,survey-multi-choice,29310.0,0.0-2.0,,21533.0,,Moderately,,STICSA_T,,sticsa_t.3,,,,,,3.0,,,,,,,,,1892,,QuestPilot1,,
1128,91,,survey-multi-choice,29310.0,0.0-2.0,,21533.0,,Very much so,,STICSA_T,,sticsa_t.4,,,,,,4.0,,,,,,,,,1892,,QuestPilot1,,
1129,91,,survey-multi-choice,29310.0,0.0-2.0,,21533.0,,Very much so,,STICSA_T,,sticsa_t.5,,,,,,4.0,,,,,,,,,1892,,QuestPilot1,,
1130,91,,survey-multi-choice,29310.0,0.0-2.0,,21533.0,,Moderately,,STICSA_T,,sticsa_t.6,,,,,,3.0,,,,,,,,,1892,,QuestPilot1,,
1131,91,,survey-multi-choice,29310.0,0.0-2.0,,21533.0,,Very much so,,STICSA_T,,sticsa_t.7,,,,,,4.0,,,,,,,,,1892,,QuestPilot1,,
1132,91,,survey-multi-choice,29310.0,0.0-2.0,,21533.0,,A little,,STICSA_T,,sticsa_t.8,,,,,,2.0,,,,,,,,,1892,,QuestPilot1,,
1133,91,,survey-multi-choice,29310.0,0.0-2.0,,21533.0,,Moderately,,STICSA_T,,sticsa_t.9,,,,,,3.0,,,,,,,,,1892,,QuestPilot1,,
1134,91,,survey-multi-choice,29310.0,0.0-2.0,,21533.0,,Moderately,,STICSA_T,,sticsa_t.10,,,,,,3.0,,,,,,,,,1892,,QuestPilot1,,
1135,91,,survey-multi-choice,29310.0,0.0-2.0,,21533.0,,Very much so,,STICSA_T,,sticsa_t.11,,,,,,4.0,,,,,,,,,1892,,QuestPilot1,,
1136,91,,survey-multi-choice,29310.0,0.0-2.0,,21533.0,,Very much so,,STICSA_T,,sticsa_t.12,,,,,,4.0,,,,,,,,,1892,,QuestPilot1,,
1137,91,,survey-multi-choice,29310.0,0.0-2.0,,21533.0,,Very much so,,STICSA_T,,sticsa_t.13,,,,,,4.0,,,,,,,,,1892,,QuestPilot1,,
1138,91,,survey-multi-choice,29310.0,0.0-2.0,,21533.0,,A little,,STICSA_T,,sticsa_t.14,,,,,,2.0,,,,,,,,,1892,,QuestPilot1,,
1139,91,,survey-multi-choice,29310.0,0.0-2.0,,21533.0,,Moderately,,STICSA_T,,sticsa_t.15,,,,,,3.0,,,,,,,,,1892,,QuestPilot1,,
1140,91,,survey-multi-choice,29310.0,0.0-2.0,,21533.0,,Very much so,,STICSA_T,,sticsa_t.16,,,,,,4.0,,,,,,,,,1892,,QuestPilot1,,
1141,91,,survey-multi-choice,29310.0,0.0-2.0,,21533.0,,A little,,STICSA_T,,sticsa_t.17,,,,,,2.0,,,,,,,,,1892,,QuestPilot1,,
1142,91,,survey-multi-choice,29310.0,0.0-2.0,,21533.0,,Very much so,,STICSA_T,,sticsa_t.18,,,,,,4.0,,,,,,,,,1892,,QuestPilot1,,
1143,91,,survey-multi-choice,29310.0,0.0-2.0,,21533.0,,Moderately,,STICSA_T,,sticsa_t.19,,,,,,3.0,,,,,,,,,1892,,QuestPilot1,,
1144,91,,survey-multi-choice,29310.0,0.0-2.0,,21533.0,,Very much so,,STICSA_T,,sticsa_t.20,,,,,,4.0,,,,,,,,,1892,,QuestPilot1,,
1145,91,,survey-multi-choice,29310.0,0.0-2.0,,21533.0,,Moderately,,STICSA_T,,sticsa_t.21,,,,,,3.0,,,,,,,,,1892,,QuestPilot1,,
1146,92,,survey-multi-choice,39028.0,0.0-3.0,,8649.0,,Moderate,,LSAS_A,,leb.2,,,,,,2.0,,,,,,,,,1892,,QuestPilot1,,
1147,92,,survey-multi-choice,39028.0,0.0-3.0,,8649.0,,Severe,,LSAS_A,,leb.3,,,,,,3.0,,,,,,,,,1892,,QuestPilot1,,
1148,92,,survey-multi-choice,39028.0,0.0-3.0,,8649.0,,Severe,,LSAS_A,,leb.4,,,,,,3.0,,,,,,,,,1892,,QuestPilot1,,
1149,92,,survey-multi-choice,39028.0,0.0-3.0,,8649.0,,Mild,,LSAS_A,,leb.13,,,,,,1.0,,,,,,,,,1892,,QuestPilot1,,
1150,92,,survey-multi-choice,39028.0,0.0-3.0,,8649.0,,Severe,,LSAS_A,,leb.14,,,,,,3.0,,,,,,,,,1892,,QuestPilot1,,
1151,92,,survey-multi-choice,39028.0,0.0-3.0,,8649.0,,Moderate,,LSAS_A,,leb.15,,,,,,2.0,,,,,,,,,1892,,QuestPilot1,,
1152,92,,survey-multi-choice,39028.0,0.0-3.0,,8649.0,,Severe,,LSAS_A,,leb.19,,,,,,3.0,,,,,,,,,1892,,QuestPilot1,,
1153,92,,survey-multi-choice,39028.0,0.0-3.0,,8649.0,,Severe,,LSAS_A,,leb.21,,,,,,3.0,,,,,,,,,1892,,QuestPilot1,,
1154,92,,survey-multi-choice,39028.0,0.0-3.0,,8649.0,,Mild,,LSAS_A,,leb.22,,,,,,1.0,,,,,,,,,1892,,QuestPilot1,,
1155,92,,survey-multi-choice,39028.0,0.0-3.0,,8649.0,,Severe,,LSAS_A,,leb.23,,,,,,3.0,,,,,,,,,1892,,QuestPilot1,,
1156,92,,survey-multi-choice,39028.0,0.0-3.0,,8649.0,,Mild,,LSAS_A,,leb.24,,,,,,1.0,,,,,,,,,1892,,QuestPilot1,,
1157,93,,survey-multi-choice,47771.0,0.0-4.0,,7679.0,,Occasionally,,LSAS_B,,leb.27,,,,,,0.0,,,,,,,,,1892,,QuestPilot1,,
1158,93,,survey-multi-choice,47771.0,0.0-4.0,,7679.0,,Usually,,LSAS_B,,leb.29,,,,,,0.0,,,,,,,,,1892,,QuestPilot1,,
1159,93,,survey-multi-choice,47771.0,0.0-4.0,,7679.0,,Often,,LSAS_B,,leb.30,,,,,,0.0,,,,,,,,,1892,,QuestPilot1,,
1160,93,,survey-multi-choice,47771.0,0.0-4.0,,7679.0,,Usually,,LSAS_B,,leb.31,,,,,,0.0,,,,,,,,,1892,,QuestPilot1,,
1161,93,,survey-multi-choice,47771.0,0.0-4.0,,7679.0,,Usually,,LSAS_B,,leb.32,,,,,,0.0,,,,,,,,,1892,,QuestPilot1,,
1162,93,,survey-multi-choice,47771.0,0.0-4.0,,7679.0,,Usually,,LSAS_B,,leb.35,,,,,,0.0,,,,,,,,,1892,,QuestPilot1,,
1163,93,,survey-multi-choice,47771.0,0.0-4.0,,7679.0,,Usually,,LSAS_B,,leb.39,,,,,,0.0,,,,,,,,,1892,,QuestPilot1,,
1164,93,,survey-multi-choice,47771.0,0.0-4.0,,7679.0,,Occasionally,,LSAS_B,,leb.40,,,,,,0.0,,,,,,,,,1892,,QuestPilot1,,
1165,93,,survey-multi-choice,47771.0,0.0-4.0,,7679.0,,Often,,LSAS_B,,leb.45,,,,,,0.0,,,,,,,,,1892,,QuestPilot1,,
1166,93,,survey-multi-choice,47771.0,0.0-4.0,,7679.0,,Occasionally,,LSAS_B,,leb.46,,,,,,0.0,,,,,,,,,1892,,QuestPilot1,,
1167,93,,survey-multi-choice,47771.0,0.0-4.0,,7679.0,,Usually,,LSAS_B,,leb.48,,,,,,0.0,,,,,,,,,1892,,QuestPilot1,,
1168,94,,survey-multi-choice,59102.0,0.0-5.0,,10187.0,,A little,,STICSA_S,,sticsa_s.1,,,,,,2.0,,,,,,,,,1892,,QuestPilot1,,
1169,94,,survey-multi-choice,59102.0,0.0-5.0,,10187.0,,Very much so,,STICSA_S,,sticsa_s.2,,,,,,4.0,,,,,,,,,1892,,QuestPilot1,,
1170,94,,survey-multi-choice,59102.0,0.0-5.0,,10187.0,,Moderately,,STICSA_S,,sticsa_s.3,,,,,,3.0,,,,,,,,,1892,,QuestPilot1,,
1171,94,,survey-multi-choice,59102.0,0.0-5.0,,10187.0,,Very much so,,STICSA_S,,sticsa_s.4,,,,,,4.0,,,,,,,,,1892,,QuestPilot1,,
1172,94,,survey-multi-choice,59102.0,0.0-5.0,,10187.0,,Very much so,,STICSA_S,,sticsa_s.5,,,,,,4.0,,,,,,,,,1892,,QuestPilot1,,
1173,94,,survey-multi-choice,59102.0,0.0-5.0,,10187.0,,Very much so,,STICSA_S,,sticsa_s.6,,,,,,4.0,,,,,,,,,1892,,QuestPilot1,,
1174,94,,survey-multi-choice,59102.0,0.0-5.0,,10187.0,,A little,,STICSA_S,,sticsa_s.7,,,,,,2.0,,,,,,,,,1892,,QuestPilot1,,
1175,94,,survey-multi-choice,59102.0,0.0-5.0,,10187.0,,Moderately,,STICSA_S,,sticsa_s.8,,,,,,3.0,,,,,,,,,1892,,QuestPilot1,,
1176,94,,survey-multi-choice,59102.0,0.0-5.0,,10187.0,,Moderately,,STICSA_S,,sticsa_s.9,,,,,,3.0,,,,,,,,,1892,,QuestPilot1,,
1177,94,,survey-multi-choice,59102.0,0.0-5.0,,10187.0,,Moderately,,STICSA_S,,sticsa_s.10,,,,,,3.0,,,,,,,,,1892,,QuestPilot1,,
1178,94,,survey-multi-choice,59102.0,0.0-5.0,,10187.0,,Very much so,,STICSA_S,,sticsa_s.11,,,,,,4.0,,,,,,,,,1892,,QuestPilot1,,
1179,94,,survey-multi-choice,59102.0,0.0-5.0,,10187.0,,Not at all,,STICSA_S,,sticsa_s.12,,,,,,1.0,,,,,,,,,1892,,QuestPilot1,,
1180,94,,survey-multi-choice,59102.0,0.0-5.0,,10187.0,,A little,,STICSA_S,,sticsa_s.13,,,,,,2.0,,,,,,,,,1892,,QuestPilot1,,
1181,94,,survey-multi-choice,59102.0,0.0-5.0,,10187.0,,Very much so,,STICSA_S,,sticsa_s.14,,,,,,4.0,,,,,,,,,1892,,QuestPilot1,,
1182,94,,survey-multi-choice,59102.0,0.0-5.0,,10187.0,,A little,,STICSA_S,,sticsa_s.15,,,,,,2.0,,,,,,,,,1892,,QuestPilot1,,
1183,94,,survey-multi-choice,59102.0,0.0-5.0,,10187.0,,Very much so,,STICSA_S,,sticsa_s.16,,,,,,4.0,,,,,,,,,1892,,QuestPilot1,,
1184,94,,survey-multi-choice,59102.0,0.0-5.0,,10187.0,,Very much so,,STICSA_S,,sticsa_s.17,,,,,,4.0,,,,,,,,,1892,,QuestPilot1,,
1185,94,,survey-multi-choice,59102.0,0.0-5.0,,10187.0,,Very much so,,STICSA_S,,sticsa_s.18,,,,,,4.0,,,,,,,,,1892,,QuestPilot1,,
1186,94,,survey-multi-choice,59102.0,0.0-5.0,,10187.0,,A little,,STICSA_S,,sticsa_s.19,,,,,,2.0,,,,,,,,,1892,,QuestPilot1,,
1187,94,,survey-multi-choice,59102.0,0.0-5.0,,10187.0,,Very much so,,STICSA_S,,sticsa_s.20,,,,,,4.0,,,,,,,,,1892,,QuestPilot1,,
1188,94,,survey-multi-choice,59102.0,0.0-5.0,,10187.0,,Moderately,,STICSA_S,,sticsa_s.21,,,,,,3.0,,,,,,,,,1892,,QuestPilot1,,
1189,95,,survey-multi-choice,68805.0,0.0-6.0,,8677.0,,2-3 times a week,,AUDIT,,alcohol.1,,,,,,0.0,,,,,,,,,1892,,QuestPilot1,,
1190,96,,survey-multi-choice,76229.0,0.0-7.0,,6354.0,,Somewhat,,AES,,apathy.2,,,,,,3.0,,,,,,,,,1892,,QuestPilot1,,
1191,96,,survey-multi-choice,76229.0,0.0-7.0,,6354.0,,Somewhat,,AES,,apathy.7,,,,,,3.0,,,,,,,,,1892,,QuestPilot1,,
1192,96,,survey-multi-choice,76229.0,0.0-7.0,,6354.0,,A lot,,AES,,apathy.17,,,,,,4.0,,,,,,,,,1892,,QuestPilot1,,
1193,96,,survey-multi-choice,76229.0,0.0-7.0,,6354.0,,A lot,,AES,,apathy.18,,,,,,4.0,,,,,,,,,1892,,QuestPilot1,,
1194,97,,survey-multi-choice,89389.0,0.0-8.0,,12090.0,,Usually,,EAT,,eat.1,,,,,,2.0,,,,,,,,,1892,,QuestPilot1,,
1195,97,,survey-multi-choice,89389.0,0.0-8.0,,12090.0,,Always,,EAT,,eat.11,,,,,,3.0,,,,,,,,,1892,,QuestPilot1,,
1196,97,,survey-multi-choice,89389.0,0.0-8.0,,12090.0,,Always,,EAT,,eat.12,,,,,,3.0,,,,,,,,,1892,,QuestPilot1,,
1197,97,,survey-multi-choice,89389.0,0.0-8.0,,12090.0,,Usually,,EAT,,eat.14,,,,,,2.0,,,,,,,,,1892,,QuestPilot1,,
1198,98,,survey-multi-choice,153783.0,0.0-9.0,,63327.0,,Very characteristic of me,,IUS_12,,ius.1,,,,,,4.0,,,,,,,,,1892,,QuestPilot1,,
1199,98,,survey-multi-choice,153783.0,0.0-9.0,,63327.0,,Entirely characteristic of me,,IUS_12,,ius.2,,,,,,5.0,,,,,,,,,1892,,QuestPilot1,,
1200,98,,survey-multi-choice,153783.0,0.0-9.0,,63327.0,,Somewhat characteristic of me,,IUS_12,,ius.3,,,,,,3.0,,,,,,,,,1892,,QuestPilot1,,
1201,98,,survey-multi-choice,153783.0,0.0-9.0,,63327.0,,Entirely characteristic of me,,IUS_12,,ius.4,,,,,,5.0,,,,,,,,,1892,,QuestPilot1,,
1202,98,,survey-multi-choice,153783.0,0.0-9.0,,63327.0,,Very characteristic of me,,IUS_12,,ius.5,,,,,,4.0,,,,,,,,,1892,,QuestPilot1,,
1203,98,,survey-multi-choice,153783.0,0.0-9.0,,63327.0,,Entirely characteristic of me,,IUS_12,,ius.6,,,,,,5.0,,,,,,,,,1892,,QuestPilot1,,
1204,98,,survey-multi-choice,153783.0,0.0-9.0,,63327.0,,Entirely characteristic of me,,IUS_12,,ius.7,,,,,,5.0,,,,,,,,,1892,,QuestPilot1,,
1205,98,,survey-multi-choice,153783.0,0.0-9.0,,63327.0,,Somewhat characteristic of me,,IUS_12,,ius.8,,,,,,3.0,,,,,,,,,1892,,QuestPilot1,,
1206,98,,survey-multi-choice,153783.0,0.0-9.0,,63327.0,,Very characteristic of me,,IUS_12,,ius.9,,,,,,4.0,,,,,,,,,1892,,QuestPilot1,,
1207,98,,survey-multi-choice,153783.0,0.0-9.0,,63327.0,,Very characteristic of me,,IUS_12,,ius.10,,,,,,4.0,,,,,,,,,1892,,QuestPilot1,,
1208,98,,survey-multi-choice,153783.0,0.0-9.0,,63327.0,,Entirely characteristic of me,,IUS_12,,ius.11,,,,,,5.0,,,,,,,,,1892,,QuestPilot1,,
1209,98,,survey-multi-choice,153783.0,0.0-9.0,,63327.0,,Entirely characteristic of me,,IUS_12,,ius.12,,,,,,5.0,,,,,,,,,1892,,QuestPilot1,,
1210,99,,survey-multi-choice,162902.0,0.0-10.0,,8020.0,,Often,,STAI,,anxiety.1,,,,,,3.0,,,,,,,,,1892,,QuestPilot1,,
1211,99,,survey-multi-choice,162902.0,0.0-10.0,,8020.0,,Almost always,,STAI,,anxiety.3,,,,,,4.0,,,,,,,,,1892,,QuestPilot1,,
1212,99,,survey-multi-choice,162902.0,0.0-10.0,,8020.0,,Often,,STAI,,anxiety.5,,,,,,3.0,,,,,,,,,1892,,QuestPilot1,,
1213,99,,survey-multi-choice,162902.0,0.0-10.0,,8020.0,,Almost always,,STAI,,anxiety.8,,,,,,4.0,,,,,,,,,1892,,QuestPilot1,,
1214,99,,survey-multi-choice,162902.0,0.0-10.0,,8020.0,,Almost always,,STAI,,anxiety.9,,,,,,4.0,,,,,,,,,1892,,QuestPilot1,,
1215,99,,survey-multi-choice,162902.0,0.0-10.0,,8020.0,,Almost always,,STAI,,anxiety.10,,,,,,4.0,,,,,,,,,1892,,QuestPilot1,,
1216,99,,survey-multi-choice,162902.0,0.0-10.0,,8020.0,,Sometimes,,STAI,,anxiety.12,,,,,,2.0,,,,,,,,,1892,,QuestPilot1,,
1217,99,,survey-multi-choice,162902.0,0.0-10.0,,8020.0,,Almost always,,STAI,,anxiety.13,,,,,,4.0,,,,,,,,,1892,,QuestPilot1,,
1218,99,,survey-multi-choice,162902.0,0.0-10.0,,8020.0,,Sometimes,,STAI,,anxiety.16,,,,,,2.0,,,,,,,,,1892,,QuestPilot1,,
1219,99,,survey-multi-choice,162902.0,0.0-10.0,,8020.0,,Often,,STAI,,anxiety.19,,,,,,3.0,,,,,,,,,1892,,QuestPilot1,,
1220,99,,survey-multi-choice,162902.0,0.0-10.0,,8020.0,,Sometimes,,STAI,,anxiety.20,,,,,,2.0,,,,,,,,,1892,,QuestPilot1,,
1221,100,,survey-multi-choice,182718.0,0.0-11.0,,18736.0,,Often,,BIS,,bis.1,,,,,,3.0,,,,,,,,,1892,,QuestPilot1,,
1222,100,,survey-multi-choice,182718.0,0.0-11.0,,18736.0,,Almost always/Always,,BIS,,bis.6,,,,,,4.0,,,,,,,,,1892,,QuestPilot1,,
1223,100,,survey-multi-choice,182718.0,0.0-11.0,,18736.0,,Often,,BIS,,bis.9,,,,,,3.0,,,,,,,,,1892,,QuestPilot1,,
1224,100,,survey-multi-choice,182718.0,0.0-11.0,,18736.0,,Almost always/Always,,BIS,,bis.13,,,,,,4.0,,,,,,,,,1892,,QuestPilot1,,
1225,100,,survey-multi-choice,182718.0,0.0-11.0,,18736.0,,Almost always/Always,,BIS,,bis.14,,,,,,4.0,,,,,,,,,1892,,QuestPilot1,,
1226,100,,survey-multi-choice,182718.0,0.0-11.0,,18736.0,,Often,,BIS,,bis.15,,,,,,3.0,,,,,,,,,1892,,QuestPilot1,,
1227,100,,survey-multi-choice,182718.0,0.0-11.0,,18736.0,,Almost always/Always,,BIS,,bis.17,,,,,,4.0,,,,,,,,,1892,,QuestPilot1,,
1228,100,,survey-multi-choice,182718.0,0.0-11.0,,18736.0,,Almost always/Always,,BIS,,bis.20,,,,,,4.0,,,,,,,,,1892,,QuestPilot1,,
1229,100,,survey-multi-choice,182718.0,0.0-11.0,,18736.0,,Occasionally,,BIS,,bis.22,,,,,,2.0,,,,,,,,,1892,,QuestPilot1,,
1230,100,,survey-multi-choice,182718.0,0.0-11.0,,18736.0,,Often,,BIS,,bis.25,,,,,,3.0,,,,,,,,,1892,,QuestPilot1,,
1231,100,,survey-multi-choice,182718.0,0.0-11.0,,18736.0,,Almost always/Always,,BIS,,bis.26,,,,,,4.0,,,,,,,,,1892,,QuestPilot1,,
1232,101,,survey-multi-choice,189842.0,0.0-12.0,,6040.0,,Some of the time,,Zhung,,zung.11,,,,,,2.0,,,,,,,,,1892,,QuestPilot1,,
1233,101,,survey-multi-choice,189842.0,0.0-12.0,,6040.0,,Most of the time,,Zhung,,zung.12,,,,,,4.0,,,,,,,,,1892,,QuestPilot1,,
1234,101,,survey-multi-choice,189842.0,0.0-12.0,,6040.0,,Good part of the time,,Zhung,,zung.13,,,,,,3.0,,,,,,,,,1892,,QuestPilot1,,
1235,101,,survey-multi-choice,189842.0,0.0-12.0,,6040.0,,Most of the time,,Zhung,,zung.14,,,,,,4.0,,,,,,,,,1892,,QuestPilot1,,
1236,101,,survey-multi-choice,189842.0,0.0-12.0,,6040.0,,Most of the time,,Zhung,,zung.16,,,,,,4.0,,,,,,,,,1892,,QuestPilot1,,
1237,101,,survey-multi-choice,189842.0,0.0-12.0,,6040.0,,Most of the time,,Zhung,,zung.17,,,,,,4.0,,,,,,,,,1892,,QuestPilot1,,
1238,101,,survey-multi-choice,189842.0,0.0-12.0,,6040.0,,Most of the time,,Zhung,,zung.18,,,,,,4.0,,,,,,,,,1892,,QuestPilot1,,
1239,101,,survey-multi-choice,189842.0,0.0-12.0,,6040.0,,Some of the time,,Zhung,,zung.20,,,,,,2.0,,,,,,,,,1892,,QuestPilot1,,
