success,trial_type,time_elapsed,internal_node_id,view_history,rt,responses,correct,pid,revealed_states,num_clicks_accrued,state_rewards,trial_id,block,trial_index,score,simulation_mode,rewards,path,actions,action_times,queries,displayed_time,trial_time,stimulus,button_pressed,run,browser,platform,language,cond,counterbalance,codeversion,beginhit,beginexp,endhit,bonus,status,mode,CODE,DEPTH,COST,MIN_TIME,inspectCost,startTime,bonusRate,variance,branching,final_bonus,displayed_bonus,time_diff,num_nodes,num_early,num_middle,num_late,num_clicks
,mouselab-mdp,339506.0,0.0-3.0-2.0-0.0,,"[1864, 111, 182]",,,2339,[],"[0, 0, 0, 0, 0, 0, 0, 0, 0, 0, 0, 0, 0]","['', -4, -4, 48, -48, -2, -8, 48, 48, -4, -4, -48, 48]",7160689332333860190,test_begin,20.0,37.0,"[None, None, None]","[-2, -8, 48]","['5', '6', '7']","['right', 'right', 'up']","[2565, 3168, 3861]","{'click': {'state': {'target': ['7'], 'time': [1439]}, 'edge': {'target': [], 'time': []}}, 'mouseover': {'state': {'target': ['7'], 'time': [1163]}, 'edge': {'target': [], 'time': []}}, 'mouseout': {'state': {'target': ['0'], 'time': [1113]}, 'edge': {'target': [], 'time': []}}}",8.7,9203.0,,,methods_main,chrome,windows,en-US,0,0,irlexp10_1,2022-03-09 16:38:57.791309,2022-03-09 16:39:05.233082,2022-03-09 16:49:37.223798,0.0,3,live,hedgehog,0,0,7,1,Wed Mar 09 2022 11:39:01 GMT-0500 (Eastern Standard Time),0.002,2_4_24,312,3.45,3.45,10.65,1,0,0,1,1
,mouselab-mdp,350838.0,0.0-3.0-2.0-1.0,,"[4251, 181, 304]",,,2339,[],"[0, 0, 0, 0, 0, 0, 0, 0, 0, 0, 0, 0, 0]","['', 4, -8, -48, -24, -2, 8, 24, 48, -2, -8, -48, -24]",6562770673904911116,test_begin,21.0,50.0,"[None, None, None]","[-2, 8, 48]","['5', '6', '8']","['right', 'right', 'down']","[5522, 6210, 7018]","{'click': {'state': {'target': ['11', '12', '7', '8'], 'time': [2000, 2740, 3534, 4312]}, 'edge': {'target': [], 'time': []}}, 'mouseover': {'state': {'target': ['11', '10', '12', '5', '7', '6', '8'], 'time': [1853, 2438, 2487, 3189, 3288, 3993, 4024]}, 'edge': {'target': [], 'time': []}}, 'mouseout': {'state': {'target': ['7', '0', '11', '10', '12', '5', '7', '6'], 'time': [684, 1319, 2421, 2471, 3138, 3206, 3991, 4006]}, 'edge': {'target': [], 'time': []}}}",10.27,11257.0,,,methods_main,chrome,windows,en-US,0,0,irlexp10_1,2022-03-09 16:38:57.791309,2022-03-09 16:39:05.233082,2022-03-09 16:49:37.223798,0.0,3,live,hedgehog,0,0,7,1,Wed Mar 09 2022 11:39:01 GMT-0500 (Eastern Standard Time),0.002,2_4_24,312,3.45,3.45,10.65,4,0,0,4,4
,mouselab-mdp,368321.0,0.0-3.0-2.0-2.0,,"[13823, 124, 238]",,,2339,[],"[0, 0, 0, 0, 0, 0, 0, 0, 0, 0, 0, 0, 0]","['', -2, -8, 24, 24, -2, -8, 24, -24, 4, -4, 24, -48]",7419235085028046283,test_begin,22.0,14.0,"[None, None, None]","[4, -4, 24]","['9', '10', '11']","['left', 'left', 'up']","[14677, 15308, 16037]","{'click': {'state': {'target': ['7', '8', '3', '4', '11', '12', '9', '10', '6', '2'], 'time': [1602, 2335, 3033, 3754, 4907, 5626, 10439, 10966, 12198, 13328]}, 'edge': {'target': [], 'time': []}}, 'mouseover': {'state': {'target': ['7', '6', '8', '3', '2', '2', '4', '11', '11', '10', '12', '9', '10', '0', '5', '6', '5', '1', '2', '1'], 'time': [1328, 2031, 2071, 2814, 3250, 3465, 3532, 4300, 4634, 5286, 5427, 9940, 10723, 11593, 11726, 11994, 12578, 12962, 13094, 13680]}, 'edge': {'target': [], 'time': []}}, 'mouseout': {'state': {'target': ['8', '0', '7', '6', '8', '3', '2', '2', '4', '11', '11', '10', '12', '9', '10', '9', '0', '5', '6', '5', '1', '2', '1'], 'time': [444, 560, 2014, 2047, 2730, 3198, 3264, 3482, 4100, 4366, 5202, 5425, 6068, 10590, 11509, 11576, 11627, 11860, 12528, 12911, 13046, 13597, 13962]}, 'edge': {'target': [], 'time': []}}}",16.54,17400.0,,,methods_main,chrome,windows,en-US,0,0,irlexp10_1,2022-03-09 16:38:57.791309,2022-03-09 16:39:05.233082,2022-03-09 16:49:37.223798,0.0,3,live,hedgehog,0,0,7,1,Wed Mar 09 2022 11:39:01 GMT-0500 (Eastern Standard Time),0.002,2_4_24,312,3.45,3.45,10.65,10,1,3,6,10
,mouselab-mdp,379974.0,0.0-3.0-2.0-3.0,,"[2621, 95, 91]",,,2339,[],"[0, 0, 0, 0, 0, 0, 0, 0, 0, 0, 0, 0, 0]","['', -4, 8, -48, 48, 2, -4, 48, -48, 2, -8, 24, -48]",5258592950055133126,test_begin,23.0,50.0,"[None, None, None]","[-4, 8, 48]","['1', '2', '4']","['up', 'up', 'left']","[4256, 4847, 5447]","{'click': {'state': {'target': ['3', '4'], 'time': [2490, 3147]}, 'edge': {'target': [], 'time': []}}, 'mouseover': {'state': {'target': ['2', '3', '2', '4'], 'time': [2081, 2198, 2882, 3016]}, 'edge': {'target': [], 'time': []}}, 'mouseout': {'state': {'target': ['5', '5', '2', '3', '2', '4'], 'time': [645, 1097, 2182, 2664, 2914, 3367]}, 'edge': {'target': [], 'time': []}}}",10.63,11563.0,,,methods_main,chrome,windows,en-US,0,0,irlexp10_1,2022-03-09 16:38:57.791309,2022-03-09 16:39:05.233082,2022-03-09 16:49:37.223798,0.0,3,live,hedgehog,0,0,7,1,Wed Mar 09 2022 11:39:01 GMT-0500 (Eastern Standard Time),0.002,2_4_24,312,3.45,3.45,10.65,2,0,0,2,2
,mouselab-mdp,391805.0,0.0-3.0-2.0-4.0,,"[2651, 4, 97]",,,2339,[],"[0, 0, 0, 0, 0, 0, 0, 0, 0, 0, 0, 0, 0]","['', -2, -4, 48, -48, 4, 8, 48, 24, 2, -4, -48, -24]",-6802951220459882826,test_begin,24.0,40.0,"[None, None, None]","[-2, -4, 48]","['1', '2', '3']","['up', 'up', 'right']","[3196, 3704, 4316]","{'click': {'state': {'target': ['4', '3'], 'time': [1515, 2131]}, 'edge': {'target': [], 'time': []}}, 'mouseover': {'state': {'target': ['1', '4', '3'], 'time': [1046, 1335, 1928]}, 'edge': {'target': [], 'time': []}}, 'mouseout': {'state': {'target': ['0', '1', '4', '3'], 'time': [946, 1229, 1761, 2314]}, 'edge': {'target': [], 'time': []}}}",9.55,11760.0,,,methods_main,chrome,windows,en-US,0,0,irlexp10_1,2022-03-09 16:38:57.791309,2022-03-09 16:39:05.233082,2022-03-09 16:49:37.223798,0.0,3,live,hedgehog,0,0,7,1,Wed Mar 09 2022 11:39:01 GMT-0500 (Eastern Standard Time),0.002,2_4_24,312,3.45,3.45,10.65,2,0,0,2,2
,mouselab-mdp,404754.0,0.0-3.0-2.0-5.0,,"[3490, 71, 232]",,,2339,[],"[0, 0, 0, 0, 0, 0, 0, 0, 0, 0, 0, 0, 0]","['', 4, 4, -48, 24, -2, 4, 48, -24, 4, 4, -48, 48]",3911103627878725878,test_begin,25.0,47.0,"[None, None, None]","[-2, 4, 48]","['5', '6', '7']","['right', 'right', 'up']","[4232, 4804, 5532]","{'click': {'state': {'target': ['3', '4', '7'], 'time': [1481, 2130, 3139]}, 'edge': {'target': [], 'time': []}}, 'mouseover': {'state': {'target': ['3', '4', '7'], 'time': [1342, 1894, 2961]}, 'edge': {'target': [], 'time': []}}, 'mouseout': {'state': {'target': ['0', '3', '4', '7', '7', '8'], 'time': [1009, 1659, 2420, 7100, 9589, 12343]}, 'edge': {'target': [], 'time': []}}}",8.74,12890.0,,,methods_main,chrome,windows,en-US,0,0,irlexp10_1,2022-03-09 16:38:57.791309,2022-03-09 16:39:05.233082,2022-03-09 16:49:37.223798,0.0,3,live,hedgehog,0,0,7,1,Wed Mar 09 2022 11:39:01 GMT-0500 (Eastern Standard Time),0.002,2_4_24,312,3.45,3.45,10.65,3,0,0,3,3
,mouselab-mdp,417056.0,0.0-3.0-2.0-6.0,,"[8287, 308, 221]",,,2339,[],"[0, 0, 0, 0, 0, 0, 0, 0, 0, 0, 0, 0, 0]","['', -2, 4, 24, 24, 4, 8, -48, 24, -2, 8, -48, -24]",-9084254621569370087,test_begin,26.0,19.0,"[None, None, None]","[-2, 4, 24]","['1', '2', '4']","['up', 'up', 'left']","[9275, 10080, 10795]","{'click': {'state': {'target': ['3', '4', '11', '12', '7', '8', '2'], 'time': [2454, 3151, 3793, 4433, 5370, 5895, 7920]}, 'edge': {'target': [], 'time': []}}, 'mouseover': {'state': {'target': ['5', '3', '3', '4', '11', '10', '12', '6', '7', '6', '8', '5', '2'], 'time': [1609, 2026, 2293, 2944, 3586, 4080, 4163, 5063, 5097, 5531, 5699, 7282, 7644]}, 'edge': {'target': [], 'time': []}}, 'mouseout': {'state': {'target': ['0', '5', '3', '3', '4', '11', '10', '12', '6', '7', '6', '8', '5', '2'], 'time': [1558, 1625, 2061, 2872, 3494, 4012, 4147, 4765, 5080, 5514, 5631, 6525, 7317, 8152]}, 'edge': {'target': [], 'time': []}}}",11.29,12224.0,,,methods_main,chrome,windows,en-US,0,0,irlexp10_1,2022-03-09 16:38:57.791309,2022-03-09 16:39:05.233082,2022-03-09 16:49:37.223798,0.0,3,live,hedgehog,0,0,7,1,Wed Mar 09 2022 11:39:01 GMT-0500 (Eastern Standard Time),0.002,2_4_24,312,3.45,3.45,10.65,7,0,1,6,7
,mouselab-mdp,427864.0,0.0-3.0-2.0-7.0,,"[1940, 101, 211]",,,2339,[],"[0, 0, 0, 0, 0, 0, 0, 0, 0, 0, 0, 0, 0]","['', 2, 8, 48, 48, -4, -8, 24, 48, 4, 4, 48, 24]",461011171885628255,test_begin,27.0,57.0,"[None, None, None]","[2, 8, 48]","['1', '2', '3']","['up', 'up', 'right']","[3114, 3707, 4419]","{'click': {'state': {'target': ['3'], 'time': [1735]}, 'edge': {'target': [], 'time': []}}, 'mouseover': {'state': {'target': ['3', '2', '4'], 'time': [1585, 1870, 2020]}, 'edge': {'target': [], 'time': []}}, 'mouseout': {'state': {'target': ['5', '3', '2', '4'], 'time': [769, 1854, 1905, 2487]}, 'edge': {'target': [], 'time': []}}}",10.17,10742.0,,,methods_main,chrome,windows,en-US,0,0,irlexp10_1,2022-03-09 16:38:57.791309,2022-03-09 16:39:05.233082,2022-03-09 16:49:37.223798,0.0,3,live,hedgehog,0,0,7,1,Wed Mar 09 2022 11:39:01 GMT-0500 (Eastern Standard Time),0.002,2_4_24,312,3.45,3.45,10.65,1,0,0,1,1
,mouselab-mdp,439055.0,0.0-3.0-2.0-8.0,,"[3312, 43, 283]",,,2339,[],"[0, 0, 0, 0, 0, 0, 0, 0, 0, 0, 0, 0, 0]","['', -2, 4, 24, -24, 4, -8, 24, -24, 4, -4, 48, -24]",624243419020886250,test_begin,28.0,45.0,"[None, None, None]","[4, -4, 48]","['9', '10', '11']","['left', 'left', 'up']","[4276, 4825, 5621]","{'click': {'state': {'target': ['3', '4', '11'], 'time': [1567, 2449, 3013]}, 'edge': {'target': [], 'time': []}}, 'mouseover': {'state': {'target': ['3', '2', '4', '4', '11', '10'], 'time': [1358, 1842, 1908, 2276, 2809, 3460]}, 'edge': {'target': [], 'time': []}}, 'mouseout': {'state': {'target': ['2', '1', '0', '3', '2', '4', '4', '11', '10', '9', '0'], 'time': [506, 590, 806, 1809, 1875, 2010, 2659, 3259, 3527, 7016, 10102]}, 'edge': {'target': [], 'time': []}}}",9.97,11124.0,,,methods_main,chrome,windows,en-US,0,0,irlexp10_1,2022-03-09 16:38:57.791309,2022-03-09 16:39:05.233082,2022-03-09 16:49:37.223798,0.0,3,live,hedgehog,0,0,7,1,Wed Mar 09 2022 11:39:01 GMT-0500 (Eastern Standard Time),0.002,2_4_24,312,3.45,3.45,10.65,3,0,0,3,3
,mouselab-mdp,449657.0,0.0-3.0-2.0-9.0,,"[1750, 10, 167]",,,2339,[],"[0, 0, 0, 0, 0, 0, 0, 0, 0, 0, 0, 0, 0]","['', 4, -4, 24, -24, -2, -4, -24, -24, 2, -4, 48, 24]",1598574912455297978,test_begin,29.0,45.0,"[None, None, None]","[2, -4, 48]","['9', '10', '11']","['left', 'left', 'up']","[2505, 3012, 3688]","{'click': {'state': {'target': ['11'], 'time': [1348]}, 'edge': {'target': [], 'time': []}}, 'mouseover': {'state': {'target': ['11', '11', '10', '9'], 'time': [1132, 1231, 1831, 1900]}, 'edge': {'target': [], 'time': []}}, 'mouseout': {'state': {'target': ['0', '11', '11', '10', '9'], 'time': [547, 1165, 1766, 1866, 4654]}, 'edge': {'target': [], 'time': []}}}",9.76,10551.0,,,methods_main,chrome,windows,en-US,0,0,irlexp10_1,2022-03-09 16:38:57.791309,2022-03-09 16:39:05.233082,2022-03-09 16:49:37.223798,0.0,3,live,hedgehog,0,0,7,1,Wed Mar 09 2022 11:39:01 GMT-0500 (Eastern Standard Time),0.002,2_4_24,312,3.45,3.45,10.65,1,0,0,1,1
,mouselab-mdp,459630.0,0.0-3.0-2.0-10.0,,"[1890, 19, 100]",,,2339,[],"[0, 0, 0, 0, 0, 0, 0, 0, 0, 0, 0, 0, 0]","['', 2, -4, 48, -48, 2, -8, 24, -24, -4, -8, 24, -24]",-8977351099475698878,test_end,30.0,45.0,"[None, None, None]","[2, -4, 48]","['1', '2', '3']","['up', 'up', 'right']","[2708, 3226, 3838]","{'click': {'state': {'target': ['3'], 'time': [1554]}, 'edge': {'target': [], 'time': []}}, 'mouseover': {'state': {'target': ['3', '2'], 'time': [1348, 1765]}, 'edge': {'target': [], 'time': []}}, 'mouseout': {'state': {'target': ['1', '0', '3', '2', '2'], 'time': [481, 1149, 1715, 1865, 6572]}, 'edge': {'target': [], 'time': []}}}",8.82,9909.0,,,methods_main,chrome,windows,en-US,0,0,irlexp10_1,2022-03-09 16:38:57.791309,2022-03-09 16:39:05.233082,2022-03-09 16:49:37.223798,0.0,3,live,hedgehog,0,0,7,1,Wed Mar 09 2022 11:39:01 GMT-0500 (Eastern Standard Time),0.002,2_4_24,312,3.45,3.45,10.65,1,0,0,1,1
,mouselab-mdp,470723.0,0.0-3.0-2.0-11.0,,"[1608, 177, 211]",,,2339,[],"[0, 0, 0, 0, 0, 0, 0, 0, 0, 0, 0, 0, 0]","['', -2, -8, 48, 24, 4, 4, 48, 24, 2, -8, -24, -48]",-6480731593057875222,test_end,31.0,37.0,"[None, None, None]","[-2, -8, 48]","['1', '2', '3']","['up', 'up', 'right']","[2645, 3315, 4031]","{'click': {'state': {'target': ['3'], 'time': [1550]}, 'edge': {'target': [], 'time': []}}, 'mouseover': {'state': {'target': ['3'], 'time': [1348]}, 'edge': {'target': [], 'time': []}}, 'mouseout': {'state': {'target': ['2', '1', '0', '3', '3'], 'time': [480, 682, 1166, 7607, 10846]}, 'edge': {'target': [], 'time': []}}}",10.04,11039.0,,,methods_main,chrome,windows,en-US,0,0,irlexp10_1,2022-03-09 16:38:57.791309,2022-03-09 16:39:05.233082,2022-03-09 16:49:37.223798,0.0,3,live,hedgehog,0,0,7,1,Wed Mar 09 2022 11:39:01 GMT-0500 (Eastern Standard Time),0.002,2_4_24,312,3.45,3.45,10.65,1,0,0,1,1
,mouselab-mdp,481322.0,0.0-3.0-2.0-12.0,,"[3913, 53, 151]",,,2339,[],"[0, 0, 0, 0, 0, 0, 0, 0, 0, 0, 0, 0, 0]","['', -4, -8, -48, -48, 4, 4, 24, 48, -4, -4, 24, 48]",7072607725447389718,test_end,32.0,36.0,"[None, None, None]","[-4, -4, 48]","['9', '10', '12']","['left', 'left', 'down']","[4799, 5343, 6007]","{'click': {'state': {'target': ['3', '4', '11', '12'], 'time': [1435, 2009, 2751, 3474]}, 'edge': {'target': [], 'time': []}}, 'mouseover': {'state': {'target': ['3', '2', '4', '11', '10', '12'], 'time': [1317, 1651, 1816, 2518, 3036, 3235]}, 'edge': {'target': [], 'time': []}}, 'mouseout': {'state': {'target': ['3', '2', '4', '11', '10', '12'], 'time': [1616, 1784, 2201, 2986, 3136, 3935]}, 'edge': {'target': [], 'time': []}}}",8.89,10540.0,,,methods_main,chrome,windows,en-US,0,0,irlexp10_1,2022-03-09 16:38:57.791309,2022-03-09 16:39:05.233082,2022-03-09 16:49:37.223798,0.0,3,live,hedgehog,0,0,7,1,Wed Mar 09 2022 11:39:01 GMT-0500 (Eastern Standard Time),0.002,2_4_24,312,3.45,3.45,10.65,4,0,0,4,4
,mouselab-mdp,491594.0,0.0-3.0-2.0-13.0,,"[3070, 80, 194]",,,2339,[],"[0, 0, 0, 0, 0, 0, 0, 0, 0, 0, 0, 0, 0]","['', 2, 4, -48, 24, -4, 8, 24, -48, 4, -8, 48, 24]",8563081952235477328,test_end,33.0,41.0,"[None, None, None]","[4, -8, 48]","['9', '10', '11']","['left', 'left', 'up']","[3686, 4275, 4969]","{'click': {'state': {'target': ['3', '4', '11'], 'time': [1467, 1961, 2463]}, 'edge': {'target': [], 'time': []}}, 'mouseover': {'state': {'target': ['3', '2', '4', '11', '10', '12'], 'time': [1303, 1603, 1754, 2172, 2639, 2805]}, 'edge': {'target': [], 'time': []}}, 'mouseout': {'state': {'target': ['0', '3', '2', '4', '11', '10', '12', '9', '0'], 'time': [1037, 1588, 1639, 2137, 2621, 2722, 3021, 5859, 6044]}, 'edge': {'target': [], 'time': []}}}",8.62,10218.0,,,methods_main,chrome,windows,en-US,0,0,irlexp10_1,2022-03-09 16:38:57.791309,2022-03-09 16:39:05.233082,2022-03-09 16:49:37.223798,0.0,3,live,hedgehog,0,0,7,1,Wed Mar 09 2022 11:39:01 GMT-0500 (Eastern Standard Time),0.002,2_4_24,312,3.45,3.45,10.65,3,0,0,3,3
,mouselab-mdp,501377.0,0.0-3.0-2.0-14.0,,"[3722, 98, 181]",,,2339,[],"[0, 0, 0, 0, 0, 0, 0, 0, 0, 0, 0, 0, 0]","['', -4, -8, -48, 24, 2, -8, -48, 48, 2, -8, -24, 24]",-3537338363954667840,test_end,34.0,38.0,"[None, None, None]","[2, -8, 48]","['5', '6', '8']","['right', 'right', 'down']","[4419, 5015, 5700]","{'click': {'state': {'target': ['12', '11', '7', '8'], 'time': [1354, 1834, 2721, 3340]}, 'edge': {'target': [], 'time': []}}, 'mouseover': {'state': {'target': ['9', '12', '10', '11', '1', '7', '6', '8'], 'time': [977, 1076, 1527, 1593, 2261, 2495, 2946, 3062]}, 'edge': {'target': [], 'time': []}}, 'mouseout': {'state': {'target': ['0', '9', '12', '10', '11', '1', '7', '6', '8'], 'time': [508, 993, 1494, 1560, 2195, 2396, 2897, 3013, 6636]}, 'edge': {'target': [], 'time': []}}}",8.7,9710.0,,,methods_main,chrome,windows,en-US,0,0,irlexp10_1,2022-03-09 16:38:57.791309,2022-03-09 16:39:05.233082,2022-03-09 16:49:37.223798,0.0,3,live,hedgehog,0,0,7,1,Wed Mar 09 2022 11:39:01 GMT-0500 (Eastern Standard Time),0.002,2_4_24,312,3.45,3.45,10.65,4,0,0,4,4
,mouselab-mdp,512345.0,0.0-3.0-2.0-15.0,,"[3724, 19, 989]",,,2339,[],"[0, 0, 0, 0, 0, 0, 0, 0, 0, 0, 0, 0, 0]","['', 2, 4, -24, 48, 2, -4, 24, 24, 2, -4, -48, -24]",7341350411386814818,test_end,35.0,51.0,"[None, None, None]","[2, 4, 48]","['1', '2', '4']","['up', 'up', 'left']","[4709, 5221, 6725]","{'click': {'state': {'target': ['8', '7', '4'], 'time': [1819, 2487, 3508]}, 'edge': {'target': [], 'time': []}}, 'mouseover': {'state': {'target': ['8', '6', '7', '3', '2', '4', '2'], 'time': [1427, 2260, 2311, 2997, 3230, 3295, 3781]}, 'edge': {'target': [], 'time': []}}, 'mouseout': {'state': {'target': ['0', '8', '6', '7', '3', '2', '4', '2', '1'], 'time': [1360, 2247, 2294, 2880, 3012, 3280, 3731, 7724, 7886]}, 'edge': {'target': [], 'time': []}}}",9.98,10897.0,,,methods_main,chrome,windows,en-US,0,0,irlexp10_1,2022-03-09 16:38:57.791309,2022-03-09 16:39:05.233082,2022-03-09 16:49:37.223798,0.0,3,live,hedgehog,0,0,7,1,Wed Mar 09 2022 11:39:01 GMT-0500 (Eastern Standard Time),0.002,2_4_24,312,3.45,3.45,10.65,3,0,0,3,3
,mouselab-mdp,523251.0,0.0-3.0-2.0-16.0,,"[2355, 25, 185]",,,2339,[],"[0, 0, 0, 0, 0, 0, 0, 0, 0, 0, 0, 0, 0]","['', 2, -8, -24, 48, 4, 4, -48, 24, 2, -4, -24, 24]",1466645676459689082,test_end,36.0,40.0,"[None, None, None]","[2, -8, 48]","['1', '2', '4']","['up', 'up', 'left']","[3428, 3956, 4645]","{'click': {'state': {'target': ['3', '4'], 'time': [1814, 2365]}, 'edge': {'target': [], 'time': []}}, 'mouseover': {'state': {'target': ['3', '2', '4'], 'time': [1518, 1985, 2036]}, 'edge': {'target': [], 'time': []}}, 'mouseout': {'state': {'target': ['0', '3', '2', '4', '0'], 'time': [1353, 1971, 2019, 2686, 5740]}, 'edge': {'target': [], 'time': []}}}",10.07,10847.0,,,methods_main,chrome,windows,en-US,0,0,irlexp10_1,2022-03-09 16:38:57.791309,2022-03-09 16:39:05.233082,2022-03-09 16:49:37.223798,0.0,3,live,hedgehog,0,0,7,1,Wed Mar 09 2022 11:39:01 GMT-0500 (Eastern Standard Time),0.002,2_4_24,312,3.45,3.45,10.65,2,0,0,2,2
,mouselab-mdp,535301.0,0.0-3.0-2.0-17.0,,"[1828, 46, 137]",,,2339,[],"[0, 0, 0, 0, 0, 0, 0, 0, 0, 0, 0, 0, 0]","['', 2, -8, 24, 48, 4, 4, 48, 48, 2, -8, -48, -48]",7007154183592665262,test_end,37.0,41.0,"[None, None, None]","[2, -8, 48]","['1', '2', '4']","['up', 'up', 'left']","[2807, 3351, 4007]","{'click': {'state': {'target': ['4'], 'time': [1693]}, 'edge': {'target': [], 'time': []}}, 'mouseover': {'state': {'target': ['4'], 'time': [1399]}, 'edge': {'target': [], 'time': []}}, 'mouseout': {'state': {'target': ['0', '4', '9'], 'time': [580, 7491, 7926]}, 'edge': {'target': [], 'time': []}}}",8.98,11996.0,,,methods_main,chrome,windows,en-US,0,0,irlexp10_1,2022-03-09 16:38:57.791309,2022-03-09 16:39:05.233082,2022-03-09 16:49:37.223798,0.0,3,live,hedgehog,0,0,7,1,Wed Mar 09 2022 11:39:01 GMT-0500 (Eastern Standard Time),0.002,2_4_24,312,3.45,3.45,10.65,1,0,0,1,1
,mouselab-mdp,545788.0,0.0-3.0-2.0-18.0,,"[4269, 59, 71]",,,2339,[],"[0, 0, 0, 0, 0, 0, 0, 0, 0, 0, 0, 0, 0]","['', 4, 8, -24, 24, 4, -4, -24, 24, -4, 4, -24, 48]",2948336531417193034,test_end,38.0,44.0,"[None, None, None]","[-4, 4, 48]","['9', '10', '12']","['left', 'left', 'down']","[5226, 5783, 6362]","{'click': {'state': {'target': ['4', '3', '11', '12'], 'time': [1613, 2490, 3345, 4191]}, 'edge': {'target': [], 'time': []}}, 'mouseover': {'state': {'target': ['1', '4', '3', '3', '1', '11', '10', '12'], 'time': [1281, 1429, 2016, 2332, 2899, 3201, 3700, 3867]}, 'edge': {'target': [], 'time': []}}, 'mouseout': {'state': {'target': ['0', '1', '4', '3', '3', '1', '11', '10', '12', '9', '0'], 'time': [1249, 1298, 1985, 2032, 2698, 2915, 3549, 3767, 4652, 9096, 9542]}, 'edge': {'target': [], 'time': []}}}",8.96,10398.0,,,methods_main,chrome,windows,en-US,0,0,irlexp10_1,2022-03-09 16:38:57.791309,2022-03-09 16:39:05.233082,2022-03-09 16:49:37.223798,0.0,3,live,hedgehog,0,0,7,1,Wed Mar 09 2022 11:39:01 GMT-0500 (Eastern Standard Time),0.002,2_4_24,312,3.45,3.45,10.65,4,0,0,4,4
,mouselab-mdp,557023.0,0.0-3.0-2.0-19.0,,"[4367, 1, 77]",,,2339,[],"[0, 0, 0, 0, 0, 0, 0, 0, 0, 0, 0, 0, 0]","['', -4, -4, -24, 24, -2, 4, 24, 24, 2, -8, 48, 48]",-3858448030437113662,test_end,39.0,38.0,"[None, None, None]","[2, -8, 48]","['9', '10', '11']","['left', 'left', 'up']","[5195, 5689, 6282]","{'click': {'state': {'target': ['4', '3', '7', '11'], 'time': [1641, 2341, 3118, 4075]}, 'edge': {'target': [], 'time': []}}, 'mouseover': {'state': {'target': ['4', '2', '3', '3', '7', '1', '11', '11', '10'], 'time': [1447, 2065, 2098, 2164, 2932, 3566, 3617, 3884, 4433]}, 'edge': {'target': [], 'time': []}}, 'mouseout': {'state': {'target': ['5', '0', '4', '2', '3', '3', '7', '1', '11', '11', '10'], 'time': [461, 628, 2048, 2082, 2131, 2766, 3502, 3583, 3649, 4284, 4587]}, 'edge': {'target': [], 'time': []}}}",8.83,11151.0,,,methods_main,chrome,windows,en-US,0,0,irlexp10_1,2022-03-09 16:38:57.791309,2022-03-09 16:39:05.233082,2022-03-09 16:49:37.223798,0.0,3,live,hedgehog,0,0,7,1,Wed Mar 09 2022 11:39:01 GMT-0500 (Eastern Standard Time),0.002,2_4_24,312,3.45,3.45,10.65,4,0,0,4,4
,mouselab-mdp,294088.0,0.0-3.0-2.0-0.0,,"[978, 437, 88]",,,2336,[],"[0, 0, 0, 0, 0, 0, 0, 0, 0, 0, 0, 0, 0]","['', -4, -4, 48, -24, -4, 4, -48, 48, -2, -8, 24, 48]",5850565339829589317,test_begin,20.0,37.0,"[None, None, None]","[-2, -8, 48]","['9', '10', '12']","['left', 'left', 'down']","[1647, 2593, 3211]","{'click': {'state': {'target': ['12'], 'time': [1126]}, 'edge': {'target': [], 'time': []}}, 'mouseover': {'state': {'target': ['12'], 'time': [1104]}, 'edge': {'target': [], 'time': []}}, 'mouseout': {'state': {'target': ['0', '12'], 'time': [921, 1287]}, 'edge': {'target': [], 'time': []}}}",10.67,11136.0,,,methods_main,chrome,windows,en-US,0,0,irlexp10_1,2022-03-09 16:35:35.374900,2022-03-09 16:35:40.710873,2022-03-09 16:47:45.597840,0.0,3,live,hedgehog,0,0,7,1,Wed Mar 09 2022 11:35:32 GMT-0500 (Eastern Standard Time),0.002,2_4_24,312,3.45,3.45,12.166666666666666,1,0,0,1,1
,mouselab-mdp,305043.0,0.0-3.0-2.0-1.0,,"[4976, 182, 260]",,,2336,[],"[0, 0, 0, 0, 0, 0, 0, 0, 0, 0, 0, 0, 0]","['', -2, 8, -24, -24, -2, 4, -48, 24, -4, -8, 48, -48]",5441343193922839396,test_begin,21.0,31.0,"[None, None, None]","[-4, -8, 48]","['9', '10', '11']","['left', 'left', 'up']","[5686, 6379, 7174]","{'click': {'state': {'target': ['12', '3', '8', '7', '11'], 'time': [1352, 2103, 2741, 3656, 5133]}, 'edge': {'target': [], 'time': []}}, 'mouseover': {'state': {'target': ['9', '12', '5', '3', '5', '8', '6', '7', '5', '0', '9', '10', '11', '10'], 'time': [1062, 1278, 1895, 2028, 2495, 2612, 3345, 3445, 3912, 4045, 4095, 4228, 5062, 5545]}, 'edge': {'target': [], 'time': []}}, 'mouseout': {'state': {'target': ['0', '9', '12', '5', '3', '5', '8', '8', '6', '7', '5', '0', '9', '10', '11', '10'], 'time': [629, 1162, 1545, 1912, 2296, 2512, 3012, 3328, 3395, 3828, 3945, 4062, 4178, 4478, 5329, 5579]}, 'edge': {'target': [], 'time': []}}}",9.71,10932.0,,,methods_main,chrome,windows,en-US,0,0,irlexp10_1,2022-03-09 16:35:35.374900,2022-03-09 16:35:40.710873,2022-03-09 16:47:45.597840,0.0,3,live,hedgehog,0,0,7,1,Wed Mar 09 2022 11:35:32 GMT-0500 (Eastern Standard Time),0.002,2_4_24,312,3.45,3.45,12.166666666666666,5,0,0,5,5
,mouselab-mdp,315440.0,0.0-3.0-2.0-2.0,,"[4727, 58, 165]",,,2336,[],"[0, 0, 0, 0, 0, 0, 0, 0, 0, 0, 0, 0, 0]","['', 4, 4, 48, 24, 4, 8, -24, -48, 2, -4, -48, 24]",-4315514392980277613,test_begin,22.0,51.0,"[None, None, None]","[4, 4, 48]","['1', '2', '3']","['up', 'up', 'right']","[5387, 5967, 6658]","{'click': {'state': {'target': ['12', '7', '8', '11', '4'], 'time': [1608, 2388, 2908, 3732, 4349]}, 'edge': {'target': [], 'time': []}}, 'mouseover': {'state': {'target': ['0', '12', '12', '5', '7', '6', '8', '0', '11', '4', '1', '3'], 'time': [825, 1193, 1592, 2192, 2292, 2576, 2725, 3375, 3659, 4225, 4659, 4892]}, 'edge': {'target': [], 'time': []}}, 'mouseout': {'state': {'target': ['0', '0', '12', '12', '5', '7', '6', '8', '0', '11', '4', '1', '3', '8'], 'time': [559, 959, 1346, 1809, 2225, 2542, 2659, 3025, 3392, 3875, 4509, 4759, 5125, 8192]}, 'edge': {'target': [], 'time': []}}}",9.66,10376.0,,,methods_main,chrome,windows,en-US,0,0,irlexp10_1,2022-03-09 16:35:35.374900,2022-03-09 16:35:40.710873,2022-03-09 16:47:45.597840,0.0,3,live,hedgehog,0,0,7,1,Wed Mar 09 2022 11:35:32 GMT-0500 (Eastern Standard Time),0.002,2_4_24,312,3.45,3.45,12.166666666666666,5,0,0,5,5
,mouselab-mdp,324944.0,0.0-3.0-2.0-3.0,,"[1044, 91, 167]",,,2336,[],"[0, 0, 0, 0, 0, 0, 0, 0, 0, 0, 0, 0, 0]","['', -2, 8, -24, 48, 2, 4, -48, 24, 4, -4, 48, 48]",3761354316659213714,test_begin,23.0,47.0,"[None, None, None]","[4, -4, 48]","['9', '10', '12']","['left', 'left', 'down']","[1744, 2355, 3047]","{'click': {'state': {'target': ['12'], 'time': [1166]}, 'edge': {'target': [], 'time': []}}, 'mouseover': {'state': {'target': ['0', '12'], 'time': [878, 1045]}, 'edge': {'target': [], 'time': []}}, 'mouseout': {'state': {'target': ['0', '0', '12'], 'time': [612, 911, 1362]}, 'edge': {'target': [], 'time': []}}}",8.7,9484.0,,,methods_main,chrome,windows,en-US,0,0,irlexp10_1,2022-03-09 16:35:35.374900,2022-03-09 16:35:40.710873,2022-03-09 16:47:45.597840,0.0,3,live,hedgehog,0,0,7,1,Wed Mar 09 2022 11:35:32 GMT-0500 (Eastern Standard Time),0.002,2_4_24,312,3.45,3.45,12.166666666666666,1,0,0,1,1
,mouselab-mdp,335593.0,0.0-3.0-2.0-4.0,,"[1740, 56, 121]",,,2336,[],"[0, 0, 0, 0, 0, 0, 0, 0, 0, 0, 0, 0, 0]","['', 2, 4, -24, 48, -2, -8, 48, 24, 4, 8, -48, -48]",-2597539031851427286,test_begin,24.0,36.0,"[None, None, None]","[-2, -8, 48]","['5', '6', '7']","['right', 'right', 'up']","[2348, 2930, 3576]","{'click': {'state': {'target': ['12', '7'], 'time': [1056, 1758]}, 'edge': {'target': [], 'time': []}}, 'mouseover': {'state': {'target': ['12', '5', '7', '6', '8'], 'time': [1004, 1571, 1638, 2005, 2138]}, 'edge': {'target': [], 'time': []}}, 'mouseout': {'state': {'target': ['0', '12', '5', '7', '6', '8'], 'time': [821, 1238, 1588, 1955, 2088, 2488]}, 'edge': {'target': [], 'time': []}}}",9.61,10626.0,,,methods_main,chrome,windows,en-US,0,0,irlexp10_1,2022-03-09 16:35:35.374900,2022-03-09 16:35:40.710873,2022-03-09 16:47:45.597840,0.0,3,live,hedgehog,0,0,7,1,Wed Mar 09 2022 11:35:32 GMT-0500 (Eastern Standard Time),0.002,2_4_24,312,3.45,3.45,12.166666666666666,2,0,0,2,2
,mouselab-mdp,347759.0,0.0-3.0-2.0-5.0,,"[5401, 52, 31]",,,2336,[],"[0, 0, 0, 0, 0, 0, 0, 0, 0, 0, 0, 0, 0]","['', -2, -8, 24, 24, -2, -8, 24, -24, 4, -4, 24, -48]",7419235085028046283,test_begin,25.0,9.0,"[None, None, None]","[-2, -8, 24]","['5', '6', '7']","['right', 'right', 'up']","[6446, 6995, 7540]","{'click': {'state': {'target': ['12', '3', '4', '11', '8'], 'time': [1737, 2459, 3237, 4393, 5067]}, 'edge': {'target': [], 'time': []}}, 'mouseover': {'state': {'target': ['12', '12', '0', '1', '3', '1', '4', '11', '9', '0', '8'], 'time': [1324, 1607, 2124, 2224, 2408, 2974, 3140, 3757, 4624, 4724, 4907]}, 'edge': {'target': [], 'time': []}}, 'mouseout': {'state': {'target': ['0', '12', '12', '0', '1', '3', '1', '4', '11', '9', '0', '8'], 'time': [1241, 1357, 1891, 2157, 2274, 2707, 3041, 3407, 4541, 4691, 4741, 5324]}, 'edge': {'target': [], 'time': []}}}",10.04,12145.0,,,methods_main,chrome,windows,en-US,0,0,irlexp10_1,2022-03-09 16:35:35.374900,2022-03-09 16:35:40.710873,2022-03-09 16:47:45.597840,0.0,3,live,hedgehog,0,0,7,1,Wed Mar 09 2022 11:35:32 GMT-0500 (Eastern Standard Time),0.002,2_4_24,312,3.45,3.45,12.166666666666666,5,0,0,5,5
,mouselab-mdp,358628.0,0.0-3.0-2.0-6.0,,"[4791, 113, 71]",,,2336,[],"[0, 0, 0, 0, 0, 0, 0, 0, 0, 0, 0, 0, 0]","['', -2, 4, -24, 24, -4, 8, -24, -48, -4, -8, 24, 24]",3023589674777612464,test_begin,26.0,21.0,"[None, None, None]","[-2, 4, 24]","['1', '2', '4']","['up', 'up', 'left']","[6010, 6657, 7247]","{'click': {'state': {'target': ['12', '3', '7', '8', '11'], 'time': [1939, 2578, 3388, 3969, 5093]}, 'edge': {'target': [], 'time': []}}, 'mouseover': {'state': {'target': ['0', '12', '12', '5', '3', '7', '7', '6', '8', '9', '11', '4', '1'], 'time': [1407, 1557, 1807, 2324, 2507, 2857, 3340, 3757, 3824, 4391, 5007, 5524, 5990]}, 'edge': {'target': [], 'time': []}}, 'mouseout': {'state': {'target': ['8', '5', '9', '0', '12', '12', '5', '3', '7', '7', '6', '8', '9', '11', '4', '1', '6', '8'], 'time': [674, 740, 1004, 1441, 1608, 2091, 2374, 2791, 2941, 3741, 3807, 4207, 4707, 5224, 5857, 6057, 6407, 8524]}, 'edge': {'target': [], 'time': []}}}",9.22,10847.0,,,methods_main,chrome,windows,en-US,0,0,irlexp10_1,2022-03-09 16:35:35.374900,2022-03-09 16:35:40.710873,2022-03-09 16:47:45.597840,0.0,3,live,hedgehog,0,0,7,1,Wed Mar 09 2022 11:35:32 GMT-0500 (Eastern Standard Time),0.002,2_4_24,312,3.45,3.45,12.166666666666666,5,0,0,5,5
,mouselab-mdp,368861.0,0.0-3.0-2.0-7.0,,"[1333, 66, 62]",,,2336,[],"[0, 0, 0, 0, 0, 0, 0, 0, 0, 0, 0, 0, 0]","['', -2, 8, 24, -48, 4, 4, -48, -24, 2, 8, -48, 48]",5188170829716247168,test_begin,27.0,57.0,"[None, None, None]","[2, 8, 48]","['9', '10', '12']","['left', 'left', 'down']","[2056, 2642, 3237]","{'click': {'state': {'target': ['12'], 'time': [1410]}, 'edge': {'target': [], 'time': []}}, 'mouseover': {'state': {'target': ['0', '12', '12'], 'time': [906, 1022, 1406]}, 'edge': {'target': [], 'time': []}}, 'mouseout': {'state': {'target': ['0', '0', '12', '12'], 'time': [639, 923, 1073, 1739]}, 'edge': {'target': [], 'time': []}}}",9.72,10212.0,,,methods_main,chrome,windows,en-US,0,0,irlexp10_1,2022-03-09 16:35:35.374900,2022-03-09 16:35:40.710873,2022-03-09 16:47:45.597840,0.0,3,live,hedgehog,0,0,7,1,Wed Mar 09 2022 11:35:32 GMT-0500 (Eastern Standard Time),0.002,2_4_24,312,3.45,3.45,12.166666666666666,1,0,0,1,1
,mouselab-mdp,379578.0,0.0-3.0-2.0-8.0,,"[3414, 52, 92]",,,2336,[],"[0, 0, 0, 0, 0, 0, 0, 0, 0, 0, 0, 0, 0]","['', -4, 4, -48, -24, 4, 4, 24, -48, -2, 4, 48, -48]",-3241889818231129669,test_begin,28.0,46.0,"[None, None, None]","[-2, 4, 48]","['9', '10', '11']","['left', 'left', 'up']","[4034, 4610, 5234]","{'click': {'state': {'target': ['12', '7', '8', '11'], 'time': [1096, 2043, 2562, 3510]}, 'edge': {'target': [], 'time': []}}, 'mouseover': {'state': {'target': ['12', '0', '5', '7', '6', '8', '0', '9', '11'], 'time': [1024, 1507, 1574, 1974, 2290, 2490, 2990, 3024, 3323]}, 'edge': {'target': [], 'time': []}}, 'mouseout': {'state': {'target': ['0', '12', '0', '5', '7', '6', '8', '8', '0', '9', '11', '1', '1', '0'], 'time': [924, 1357, 1540, 1590, 2240, 2374, 2840, 2890, 3007, 3057, 3707, 6786, 8657, 8790]}, 'edge': {'target': [], 'time': []}}}",9.62,10697.0,,,methods_main,chrome,windows,en-US,0,0,irlexp10_1,2022-03-09 16:35:35.374900,2022-03-09 16:35:40.710873,2022-03-09 16:47:45.597840,0.0,3,live,hedgehog,0,0,7,1,Wed Mar 09 2022 11:35:32 GMT-0500 (Eastern Standard Time),0.002,2_4_24,312,3.45,3.45,12.166666666666666,4,0,0,4,4
,mouselab-mdp,390005.0,0.0-3.0-2.0-9.0,,"[1658, 79, 110]",,,2336,[],"[0, 0, 0, 0, 0, 0, 0, 0, 0, 0, 0, 0, 0]","['', -4, -4, -48, 24, 4, 4, 48, -24, 4, -4, 48, 24]",1518845473617230857,test_begin,29.0,54.0,"[None, None, None]","[4, 4, 48]","['5', '6', '7']","['right', 'right', 'up']","[2208, 2784, 3397]","{'click': {'state': {'target': ['12', '7'], 'time': [1003, 1612]}, 'edge': {'target': [], 'time': []}}, 'mouseover': {'state': {'target': ['12', '5', '7', '6', '8'], 'time': [918, 1468, 1535, 1851, 2068]}, 'edge': {'target': [], 'time': []}}, 'mouseout': {'state': {'target': ['0', '12', '5', '7', '6', '8', '6'], 'time': [622, 1202, 1485, 1818, 1902, 2368, 4651]}, 'edge': {'target': [], 'time': []}}}",9.55,10402.0,,,methods_main,chrome,windows,en-US,0,0,irlexp10_1,2022-03-09 16:35:35.374900,2022-03-09 16:35:40.710873,2022-03-09 16:47:45.597840,0.0,3,live,hedgehog,0,0,7,1,Wed Mar 09 2022 11:35:32 GMT-0500 (Eastern Standard Time),0.002,2_4_24,312,3.45,3.45,12.166666666666666,2,0,0,2,2
,mouselab-mdp,399932.0,0.0-3.0-2.0-10.0,,"[1289, 92, 85]",,,2336,[],"[0, 0, 0, 0, 0, 0, 0, 0, 0, 0, 0, 0, 0]","['', -2, 8, 24, -48, -4, 4, -48, -48, -4, 8, 24, 48]",6736047799867450157,test_end,30.0,51.0,"[None, None, None]","[-4, 8, 48]","['9', '10', '12']","['left', 'left', 'down']","[1925, 2503, 3114]","{'click': {'state': {'target': ['12'], 'time': [1322]}, 'edge': {'target': [], 'time': []}}, 'mouseover': {'state': {'target': ['0', '12'], 'time': [877, 1193]}, 'edge': {'target': [], 'time': []}}, 'mouseout': {'state': {'target': ['0', '0', '12'], 'time': [640, 926, 1577]}, 'edge': {'target': [], 'time': []}}}",8.64,9903.0,,,methods_main,chrome,windows,en-US,0,0,irlexp10_1,2022-03-09 16:35:35.374900,2022-03-09 16:35:40.710873,2022-03-09 16:47:45.597840,0.0,3,live,hedgehog,0,0,7,1,Wed Mar 09 2022 11:35:32 GMT-0500 (Eastern Standard Time),0.002,2_4_24,312,3.45,3.45,12.166666666666666,1,0,0,1,1
,mouselab-mdp,409361.0,0.0-3.0-2.0-11.0,,"[1033, 30, 126]",,,2336,[],"[0, 0, 0, 0, 0, 0, 0, 0, 0, 0, 0, 0, 0]","['', 4, -8, 48, 24, -2, -4, 24, -24, 4, -4, 48, 48]",-8930756420240891119,test_end,31.0,47.0,"[None, None, None]","[4, -4, 48]","['9', '10', '12']","['left', 'left', 'down']","[1860, 2400, 3029]","{'click': {'state': {'target': ['12'], 'time': [1383]}, 'edge': {'target': [], 'time': []}}, 'mouseover': {'state': {'target': ['0', '9', '12'], 'time': [1034, 1084, 1184]}, 'edge': {'target': [], 'time': []}}, 'mouseout': {'state': {'target': ['0', '0', '9', '12', '0'], 'time': [784, 1051, 1102, 1634, 6883]}, 'edge': {'target': [], 'time': []}}}",8.83,9406.0,,,methods_main,chrome,windows,en-US,0,0,irlexp10_1,2022-03-09 16:35:35.374900,2022-03-09 16:35:40.710873,2022-03-09 16:47:45.597840,0.0,3,live,hedgehog,0,0,7,1,Wed Mar 09 2022 11:35:32 GMT-0500 (Eastern Standard Time),0.002,2_4_24,312,3.45,3.45,12.166666666666666,1,0,0,1,1
,mouselab-mdp,419051.0,0.0-3.0-2.0-12.0,,"[3631, 288, 182]",,,2336,[],"[0, 0, 0, 0, 0, 0, 0, 0, 0, 0, 0, 0, 0]","['', 2, 4, -48, 24, -4, 8, 24, -48, 4, -8, 48, 24]",8563081952235477328,test_end,32.0,40.0,"[None, None, None]","[4, -8, 48]","['9', '10', '11']","['left', 'left', 'up']","[4166, 4979, 5689]","{'click': {'state': {'target': ['12', '7', '8', '11'], 'time': [1745, 2621, 3077, 3692]}, 'edge': {'target': [], 'time': []}}, 'mouseover': {'state': {'target': ['9', '12', '12', '5', '7', '8', '0', '9', '11'], 'time': [856, 1172, 1705, 2339, 2556, 3005, 3472, 3506, 3605]}, 'edge': {'target': [], 'time': []}}, 'mouseout': {'state': {'target': ['0', '9', '12', '12', '5', '7', '8', '0', '9', '11', '1'], 'time': [440, 872, 1255, 2022, 2439, 2805, 3339, 3489, 3522, 4039, 4472]}, 'edge': {'target': [], 'time': []}}}",8.54,9668.0,,,methods_main,chrome,windows,en-US,0,0,irlexp10_1,2022-03-09 16:35:35.374900,2022-03-09 16:35:40.710873,2022-03-09 16:47:45.597840,0.0,3,live,hedgehog,0,0,7,1,Wed Mar 09 2022 11:35:32 GMT-0500 (Eastern Standard Time),0.002,2_4_24,312,3.45,3.45,12.166666666666666,4,0,0,4,4
,mouselab-mdp,431480.0,0.0-3.0-2.0-13.0,,"[3571, 204, 206]",,,2336,[],"[0, 0, 0, 0, 0, 0, 0, 0, 0, 0, 0, 0, 0]","['', 4, -4, 24, -24, -2, -4, -24, -24, 2, -4, 48, 24]",1598574912455297978,test_end,33.0,41.0,"[None, None, None]","[2, -4, 48]","['9', '10', '11']","['left', 'left', 'up']","[5907, 6635, 7353]","{'click': {'state': {'target': ['7', '8', '12', '4', '11'], 'time': [2903, 3621, 4218, 4900, 5356]}, 'edge': {'target': [], 'time': []}}, 'mouseover': {'state': {'target': ['0', '5', '7', '6', '8', '12', '4', '11', '1'], 'time': [2563, 2730, 2813, 3413, 3480, 4063, 4780, 5280, 5897]}, 'edge': {'target': [], 'time': []}}, 'mouseout': {'state': {'target': ['0', '5', '7', '6', '8', '12', '4', '11', '1'], 'time': [2634, 2748, 3347, 3447, 3947, 4397, 5147, 5547, 5947]}, 'edge': {'target': [], 'time': []}}}",10.34,12406.0,,,methods_main,chrome,windows,en-US,0,0,irlexp10_1,2022-03-09 16:35:35.374900,2022-03-09 16:35:40.710873,2022-03-09 16:47:45.597840,0.0,3,live,hedgehog,0,0,7,1,Wed Mar 09 2022 11:35:32 GMT-0500 (Eastern Standard Time),0.002,2_4_24,312,3.45,3.45,12.166666666666666,5,0,0,5,5
,mouselab-mdp,543820.0,0.0-3.0-2.0-14.0,,"[1993, 98, 144]",,,2336,[],"[0, 0, 0, 0, 0, 0, 0, 0, 0, 0, 0, 0, 0]","['', 2, 8, -48, -48, 4, 4, -48, 48, 4, 8, 24, -48]",2594841513017680058,test_end,34.0,53.0,"[None, None, None]","[4, 4, 48]","['5', '6', '8']","['right', 'right', 'down']","[2562, 3185, 3829]","{'click': {'state': {'target': ['12', '7', '8'], 'time': [990, 1561, 1964]}, 'edge': {'target': [], 'time': []}}, 'mouseover': {'state': {'target': ['0', '12', '5', '7', '6', '8', '9'], 'time': [768, 918, 1384, 1467, 1784, 1901, 2318]}, 'edge': {'target': [], 'time': []}}, 'mouseout': {'state': {'target': ['0', '12', '5', '7', '6', '8', '9', '0', '5', '6'], 'time': [801, 1218, 1401, 1767, 1851, 2202, 2568, 2635, 2684, 2734]}, 'edge': {'target': [], 'time': []}}}",9.57,112317.0,,,methods_main,chrome,windows,en-US,0,0,irlexp10_1,2022-03-09 16:35:35.374900,2022-03-09 16:35:40.710873,2022-03-09 16:47:45.597840,0.0,3,live,hedgehog,0,0,7,1,Wed Mar 09 2022 11:35:32 GMT-0500 (Eastern Standard Time),0.002,2_4_24,312,3.45,3.45,12.166666666666666,3,0,0,3,3
,mouselab-mdp,560569.0,0.0-3.0-2.0-15.0,,"[3983, 149, 138]",,,2336,[],"[0, 0, 0, 0, 0, 0, 0, 0, 0, 0, 0, 0, 0]","['', 2, 8, -48, 48, 4, 4, -24, 48, -4, -4, 48, -24]",-9094639660769570359,test_end,35.0,53.0,"[None, None, None]","[4, 4, 48]","['5', '6', '8']","['right', 'right', 'down']","[4689, 5359, 6029]","{'click': {'state': {'target': ['12', '7', '8'], 'time': [1501, 2125, 2512]}, 'edge': {'target': [], 'time': []}}, 'mouseover': {'state': {'target': ['0', '12', '5', '7', '6', '8', '6', '5', '6'], 'time': [972, 1408, 1891, 1991, 2324, 2491, 3191, 3374, 4591]}, 'edge': {'target': [], 'time': []}}, 'mouseout': {'state': {'target': ['0', '0', '12', '5', '7', '6', '8', '6', '5', '6'], 'time': [787, 991, 1708, 1941, 2307, 2391, 2858, 3341, 3841, 4741]}, 'edge': {'target': [], 'time': []}}}",9.71,16723.0,,,methods_main,chrome,windows,en-US,0,0,irlexp10_1,2022-03-09 16:35:35.374900,2022-03-09 16:35:40.710873,2022-03-09 16:47:45.597840,0.0,3,live,hedgehog,0,0,7,1,Wed Mar 09 2022 11:35:32 GMT-0500 (Eastern Standard Time),0.002,2_4_24,312,3.45,3.45,12.166666666666666,3,0,0,3,3
,mouselab-mdp,576092.0,0.0-3.0-2.0-16.0,,"[10744, 142, 97]",,,2336,[],"[0, 0, 0, 0, 0, 0, 0, 0, 0, 0, 0, 0, 0]","['', -4, -4, -24, 24, -4, -8, -48, -48, 2, -4, -24, 24]",-5712514638697657456,test_end,36.0,14.0,"[None, None, None]","[2, -4, 24]","['9', '10', '12']","['left', 'left', 'down']","[11964, 12603, 13192]","{'click': {'state': {'target': ['12', '8', '7', '11', '4', '3', '10', '2'], 'time': [1734, 2394, 2858, 3431, 3975, 4482, 7731, 9357]}, 'edge': {'target': [], 'time': []}}, 'mouseover': {'state': {'target': ['12', '8', '7', '5', '11', '4', '3', '9', '10', '0', '1', '2', '1', '5'], 'time': [1710, 2310, 2777, 3110, 3310, 3860, 4393, 7477, 7610, 9060, 9127, 9293, 9627, 9727]}, 'edge': {'target': [], 'time': []}}, 'mouseout': {'state': {'target': ['6', '5', '0', '12', '8', '7', '5', '11', '4', '3', '9', '10', '0', '1', '2', '1', '5', '8'], 'time': [560, 893, 1527, 1994, 2543, 3010, 3144, 3627, 4143, 4643, 7544, 7893, 9077, 9210, 9582, 9660, 9827, 10494]}, 'edge': {'target': [], 'time': []}}}",13.68,15500.0,,,methods_main,chrome,windows,en-US,0,0,irlexp10_1,2022-03-09 16:35:35.374900,2022-03-09 16:35:40.710873,2022-03-09 16:47:45.597840,0.0,3,live,hedgehog,0,0,7,1,Wed Mar 09 2022 11:35:32 GMT-0500 (Eastern Standard Time),0.002,2_4_24,312,3.45,3.45,12.166666666666666,8,0,2,6,8
,mouselab-mdp,587014.0,0.0-3.0-2.0-17.0,,"[2333, 76, 42]",,,2336,[],"[0, 0, 0, 0, 0, 0, 0, 0, 0, 0, 0, 0, 0]","['', 4, 8, 24, 48, -4, -8, -24, -24, 4, -4, 24, 48]",-6519267732573937633,test_end,37.0,47.0,"[None, None, None]","[4, -4, 48]","['9', '10', '12']","['left', 'left', 'down']","[2950, 3533, 4065]","{'click': {'state': {'target': ['12'], 'time': [1300]}, 'edge': {'target': [], 'time': []}}, 'mouseover': {'state': {'target': ['0', '12', '5', '5', '0'], 'time': [766, 1156, 1656, 1889, 2039]}, 'edge': {'target': [], 'time': []}}, 'mouseout': {'state': {'target': ['0', '0', '12', '5', '5', '0', '0'], 'time': [694, 806, 1456, 1722, 2006, 2706, 4423]}, 'edge': {'target': [], 'time': []}}}",8.62,10901.0,,,methods_main,chrome,windows,en-US,0,0,irlexp10_1,2022-03-09 16:35:35.374900,2022-03-09 16:35:40.710873,2022-03-09 16:47:45.597840,0.0,3,live,hedgehog,0,0,7,1,Wed Mar 09 2022 11:35:32 GMT-0500 (Eastern Standard Time),0.002,2_4_24,312,3.45,3.45,12.166666666666666,1,0,0,1,1
,mouselab-mdp,598303.0,0.0-3.0-2.0-18.0,,"[5368, 65, 113]",,,2336,[],"[0, 0, 0, 0, 0, 0, 0, 0, 0, 0, 0, 0, 0]","['', -2, 4, -24, 48, -2, 4, -24, 48, 4, -8, 24, 48]",336485828046445828,test_end,38.0,46.0,"[None, None, None]","[-2, 4, 48]","['5', '6', '8']","['right', 'right', 'down']","[6354, 6950, 7596]","{'click': {'state': {'target': ['12', '10', '8', '6'], 'time': [1680, 3657, 4801, 5544]}, 'edge': {'target': [], 'time': []}}, 'mouseover': {'state': {'target': ['12', '12', '9', '10', '5', '6', '8', '6', '5'], 'time': [1266, 1583, 2366, 3483, 4449, 4549, 4732, 5416, 6032]}, 'edge': {'target': [], 'time': []}}, 'mouseout': {'state': {'target': ['0', '0', '12', '12', '9', '10', '5', '6', '8', '8', '6', '5'], 'time': [599, 1166, 1316, 1866, 2833, 3849, 4499, 4666, 4983, 5382, 5682, 6316]}, 'edge': {'target': [], 'time': []}}}",9.99,11267.0,,,methods_main,chrome,windows,en-US,0,0,irlexp10_1,2022-03-09 16:35:35.374900,2022-03-09 16:35:40.710873,2022-03-09 16:47:45.597840,0.0,3,live,hedgehog,0,0,7,1,Wed Mar 09 2022 11:35:32 GMT-0500 (Eastern Standard Time),0.002,2_4_24,312,3.45,3.45,12.166666666666666,4,0,2,2,4
,mouselab-mdp,609184.0,0.0-3.0-2.0-19.0,,"[6848, 101, 95]",,,2336,[],"[0, 0, 0, 0, 0, 0, 0, 0, 0, 0, 0, 0, 0]","['', -4, -4, 24, -24, -4, 4, 24, 24, 4, 4, 48, -48]",-7890144164692454837,test_end,39.0,50.0,"[None, None, None]","[4, 4, 48]","['9', '10', '11']","['left', 'left', 'up']","[7659, 8281, 8908]","{'click': {'state': {'target': ['12', '7', '8', '11', '3', '4'], 'time': [1491, 2081, 2563, 3301, 4833, 5619]}, 'edge': {'target': [], 'time': []}}, 'mouseover': {'state': {'target': ['0', '12', '5', '7', '6', '8', '9', '11', '9', '9', '1', '3', '4', '9', '10'], 'time': [927, 1279, 1860, 2010, 2277, 2393, 3061, 3193, 4143, 4543, 4627, 4760, 5496, 6394, 7144]}, 'edge': {'target': [], 'time': []}}, 'mouseout': {'state': {'target': ['0', '0', '12', '5', '7', '6', '8', '9', '11', '9', '9', '1', '3', '4', '9', '10', '9', '0', '5'], 'time': [727, 944, 1627, 1927, 2243, 2343, 2727, 3078, 3460, 4244, 4560, 4677, 5045, 5994, 6644, 7677, 7977, 8111, 8394]}, 'edge': {'target': [], 'time': []}}}",9.39,10859.0,,,methods_main,chrome,windows,en-US,0,0,irlexp10_1,2022-03-09 16:35:35.374900,2022-03-09 16:35:40.710873,2022-03-09 16:47:45.597840,0.0,3,live,hedgehog,0,0,7,1,Wed Mar 09 2022 11:35:32 GMT-0500 (Eastern Standard Time),0.002,2_4_24,312,3.45,3.45,12.166666666666666,6,0,0,6,6
,mouselab-mdp,489234.0,0.0-3.0-2.0-0.0,,"[5813, 69, 29]",,,2271,[],"[0, 0, 0, 0, 0, 0, 0, 0, 0, 0, 0, 0, 0]","['', -2, 8, 24, 48, -2, -8, 48, 48, 2, 4, 24, 48]",1013767336841409156,test_begin,20.0,50.0,"[None, None, None]","[-2, 8, 48]","['1', '2', '4']","['up', 'up', 'left']","[6634, 7204, 7731]","{'click': {'state': {'target': ['3', '4', '1', '2'], 'time': [2503, 3558, 4850, 5470]}, 'edge': {'target': [], 'time': []}}, 'mouseover': {'state': {'target': ['1', '3', '2', '4', '1', '2'], 'time': [1274, 2141, 3009, 3243, 4659, 5229]}, 'edge': {'target': [], 'time': []}}, 'mouseout': {'state': {'target': ['0', '1', '3', '2', '4', '1', '2'], 'time': [352, 1974, 2959, 3076, 3842, 5179, 5830]}, 'edge': {'target': [], 'time': []}}}",9.82,11219.0,,,methods_main,chrome,windows,en-US,0,0,irlexp10_1,2022-03-09 15:16:15.214871,2022-03-09 15:16:22.483329,2022-03-09 15:29:30.195007,0.0,3,live,hedgehog,0,0,7,1,Wed Mar 09 2022 10:16:16 GMT-0500 (Eastern Standard Time),0.002,2_4_24,312,3.37,3.37,13.233333333333333,4,1,1,2,4
,mouselab-mdp,498922.0,0.0-3.0-2.0-1.0,,"[5500, 117, 124]",,,2271,[],"[0, 0, 0, 0, 0, 0, 0, 0, 0, 0, 0, 0, 0]","['', 4, 4, 48, 24, 4, 8, -24, -48, 2, -4, -48, 24]",-4315514392980277613,test_begin,21.0,52.0,"[None, None, None]","[4, 4, 48]","['1', '2', '3']","['up', 'up', 'right']","[6926, 7544, 8172]","{'click': {'state': {'target': ['4', '3', '1', '2'], 'time': [2845, 3884, 5011, 5732]}, 'edge': {'target': [], 'time': []}}, 'mouseover': {'state': {'target': ['4', '2', '3', '1', '2'], 'time': [2602, 3168, 3420, 4821, 5319]}, 'edge': {'target': [], 'time': []}}, 'mouseout': {'state': {'target': ['0', '4', '2', '3', '1', '2'], 'time': [1251, 3135, 3266, 4601, 5254, 6039]}, 'edge': {'target': [], 'time': []}}}",9.43,9600.0,,,methods_main,chrome,windows,en-US,0,0,irlexp10_1,2022-03-09 15:16:15.214871,2022-03-09 15:16:22.483329,2022-03-09 15:29:30.195007,0.0,3,live,hedgehog,0,0,7,1,Wed Mar 09 2022 10:16:16 GMT-0500 (Eastern Standard Time),0.002,2_4_24,312,3.37,3.37,13.233333333333333,4,1,1,2,4
,mouselab-mdp,512104.0,0.0-3.0-2.0-2.0,,"[8949, 6, 42]",,,2271,[],"[0, 0, 0, 0, 0, 0, 0, 0, 0, 0, 0, 0, 0]","['', -4, 8, -24, 24, 2, -8, -48, -48, -4, -4, -48, -48]",1544641883439246815,test_begin,22.0,22.0,"[None, None, None]","[-4, 8, 24]","['1', '2', '4']","['up', 'up', 'left']","[10283, 10793, 11345]","{'click': {'state': {'target': ['3', '4', '11', '12', '8', '7'], 'time': [2230, 3014, 3789, 4557, 5645, 6429]}, 'edge': {'target': [], 'time': []}}, 'mouseover': {'state': {'target': ['1', '3', '2', '4', '11', '10', '12', '8', '6', '7', '1', '1', '1'], 'time': [1902, 2032, 2686, 2836, 3571, 4152, 4285, 5424, 6092, 6192, 8026, 8145, 9360]}, 'edge': {'target': [], 'time': []}}, 'mouseout': {'state': {'target': ['0', '1', '3', '2', '4', '11', '10', '12', '8', '6', '7', '1', '1', '1'], 'time': [1133, 1920, 2653, 2768, 3321, 4106, 4219, 5023, 6075, 6141, 7674, 8076, 8813, 9429]}, 'edge': {'target': [], 'time': []}}}",11.87,13120.0,,,methods_main,chrome,windows,en-US,0,0,irlexp10_1,2022-03-09 15:16:15.214871,2022-03-09 15:16:22.483329,2022-03-09 15:29:30.195007,0.0,3,live,hedgehog,0,0,7,1,Wed Mar 09 2022 10:16:16 GMT-0500 (Eastern Standard Time),0.002,2_4_24,312,3.37,3.37,13.233333333333333,6,0,0,6,6
,mouselab-mdp,523307.0,0.0-3.0-2.0-3.0,,"[3405, 58, 51]",,,2271,[],"[0, 0, 0, 0, 0, 0, 0, 0, 0, 0, 0, 0, 0]","['', 4, 4, 48, -24, 4, -4, -48, 48, 2, -8, 48, 24]",-8580200434703875697,test_begin,23.0,54.0,"[None, None, None]","[4, 4, 48]","['1', '2', '3']","['up', 'up', 'right']","[5011, 5571, 6131]","{'click': {'state': {'target': ['4', '3'], 'time': [2319, 3055]}, 'edge': {'target': [], 'time': []}}, 'mouseover': {'state': {'target': ['1', '4', '2', '3'], 'time': [1983, 2086, 2705, 2854]}, 'edge': {'target': [], 'time': []}}, 'mouseout': {'state': {'target': ['0', '0', '1', '4', '2', '3'], 'time': [1316, 1933, 2020, 2671, 2755, 3940]}, 'edge': {'target': [], 'time': []}}}",10.61,11171.0,,,methods_main,chrome,windows,en-US,0,0,irlexp10_1,2022-03-09 15:16:15.214871,2022-03-09 15:16:22.483329,2022-03-09 15:29:30.195007,0.0,3,live,hedgehog,0,0,7,1,Wed Mar 09 2022 10:16:16 GMT-0500 (Eastern Standard Time),0.002,2_4_24,312,3.37,3.37,13.233333333333333,2,0,0,2,2
,mouselab-mdp,533284.0,0.0-3.0-2.0-4.0,,"[2881, 92, 112]",,,2271,[],"[0, 0, 0, 0, 0, 0, 0, 0, 0, 0, 0, 0, 0]","['', 4, 8, 48, 48, -4, -8, -48, 24, 4, 8, 24, 24]",-5736556951088810154,test_begin,24.0,59.0,"[None, None, None]","[4, 8, 48]","['1', '2', '3']","['up', 'up', 'right']","[4209, 4801, 5401]","{'click': {'state': {'target': ['3'], 'time': [2361]}, 'edge': {'target': [], 'time': []}}, 'mouseover': {'state': {'target': ['1', '3'], 'time': [1967, 2137]}, 'edge': {'target': [], 'time': []}}, 'mouseout': {'state': {'target': ['1', '3'], 'time': [2000, 3021]}, 'edge': {'target': [], 'time': []}}}",9.33,9897.0,,,methods_main,chrome,windows,en-US,0,0,irlexp10_1,2022-03-09 15:16:15.214871,2022-03-09 15:16:22.483329,2022-03-09 15:29:30.195007,0.0,3,live,hedgehog,0,0,7,1,Wed Mar 09 2022 10:16:16 GMT-0500 (Eastern Standard Time),0.002,2_4_24,312,3.37,3.37,13.233333333333333,1,0,0,1,1
,mouselab-mdp,544764.0,0.0-3.0-2.0-5.0,,"[3948, 116, 495]",,,2271,[],"[0, 0, 0, 0, 0, 0, 0, 0, 0, 0, 0, 0, 0]","['', -2, 4, 24, -24, 4, -8, 24, -24, 4, -4, 48, -24]",624243419020886250,test_begin,25.0,45.0,"[None, None, None]","[4, -4, 48]","['9', '10', '11']","['left', 'left', 'up']","[4758, 5374, 6372]","{'click': {'state': {'target': ['3', '4', '11'], 'time': [1619, 2378, 3114]}, 'edge': {'target': [], 'time': []}}, 'mouseover': {'state': {'target': ['1', '3', '2', '4', '11', '10'], 'time': [1301, 1438, 2057, 2190, 2873, 4008]}, 'edge': {'target': [], 'time': []}}, 'mouseout': {'state': {'target': ['1', '3', '2', '4', '11', '10'], 'time': [1318, 2023, 2122, 2757, 3441, 4076]}, 'edge': {'target': [], 'time': []}}}",10.81,11383.0,,,methods_main,chrome,windows,en-US,0,0,irlexp10_1,2022-03-09 15:16:15.214871,2022-03-09 15:16:22.483329,2022-03-09 15:29:30.195007,0.0,3,live,hedgehog,0,0,7,1,Wed Mar 09 2022 10:16:16 GMT-0500 (Eastern Standard Time),0.002,2_4_24,312,3.37,3.37,13.233333333333333,3,0,0,3,3
,mouselab-mdp,555908.0,0.0-3.0-2.0-6.0,,"[4258, 55, 467]",,,2271,[],"[0, 0, 0, 0, 0, 0, 0, 0, 0, 0, 0, 0, 0]","['', -4, -8, -48, 24, 2, -8, -48, 48, 2, -8, -24, 24]",-3537338363954667840,test_begin,26.0,39.0,"[None, None, None]","[2, -8, 48]","['5', '6', '8']","['right', 'right', 'down']","[5751, 6309, 7287]","{'click': {'state': {'target': ['11', '12', '8'], 'time': [2299, 3243, 4187]}, 'edge': {'target': [], 'time': []}}, 'mouseover': {'state': {'target': ['11', '10', '12', '8'], 'time': [1993, 2927, 3011, 3945]}, 'edge': {'target': [], 'time': []}}, 'mouseout': {'state': {'target': ['9', '11', '10', '12', '8'], 'time': [991, 2694, 2977, 3661, 4880]}, 'edge': {'target': [], 'time': []}}}",10.49,11063.0,,,methods_main,chrome,windows,en-US,0,0,irlexp10_1,2022-03-09 15:16:15.214871,2022-03-09 15:16:22.483329,2022-03-09 15:29:30.195007,0.0,3,live,hedgehog,0,0,7,1,Wed Mar 09 2022 10:16:16 GMT-0500 (Eastern Standard Time),0.002,2_4_24,312,3.37,3.37,13.233333333333333,3,0,0,3,3
,mouselab-mdp,566268.0,0.0-3.0-2.0-7.0,,"[4483, 202, 410]",,,2271,[],"[0, 0, 0, 0, 0, 0, 0, 0, 0, 0, 0, 0, 0]","['', -2, 8, -24, 24, 2, -8, -48, -24, 4, -4, 48, -48]",-6373051720525898386,test_begin,27.0,45.0,"[None, None, None]","[4, -4, 48]","['9', '10', '11']","['left', 'left', 'up']","[6935, 7633, 8537]","{'click': {'state': {'target': ['3', '4', '11'], 'time': [3725, 4508, 5500]}, 'edge': {'target': [], 'time': []}}, 'mouseover': {'state': {'target': ['1', '3', '2', '4', '11'], 'time': [2903, 3454, 4105, 4186, 5290]}, 'edge': {'target': [], 'time': []}}, 'mouseout': {'state': {'target': ['6', '5', '0', '0', '0', '1', '3', '2', '4', '11'], 'time': [1618, 1734, 2251, 2285, 2368, 3237, 4072, 4155, 4953, 6141]}, 'edge': {'target': [], 'time': []}}}",9.45,10233.0,,,methods_main,chrome,windows,en-US,0,0,irlexp10_1,2022-03-09 15:16:15.214871,2022-03-09 15:16:22.483329,2022-03-09 15:29:30.195007,0.0,3,live,hedgehog,0,0,7,1,Wed Mar 09 2022 10:16:16 GMT-0500 (Eastern Standard Time),0.002,2_4_24,312,3.37,3.37,13.233333333333333,3,0,0,3,3
,mouselab-mdp,576203.0,0.0-3.0-2.0-8.0,,"[4844, 148, 207]",,,2271,[],"[0, 0, 0, 0, 0, 0, 0, 0, 0, 0, 0, 0, 0]","['', 2, 4, -24, 48, 2, -4, 24, 24, 2, -4, -48, -24]",7341350411386814818,test_begin,28.0,50.0,"[None, None, None]","[2, 4, 48]","['1', '2', '4']","['up', 'up', 'left']","[5965, 6606, 7318]","{'click': {'state': {'target': ['8', '7', '3', '4'], 'time': [2234, 3176, 3917, 4593]}, 'edge': {'target': [], 'time': []}}, 'mouseover': {'state': {'target': ['5', '8', '6', '7', '3', '2', '4'], 'time': [1501, 1983, 2816, 3016, 3721, 4238, 4352]}, 'edge': {'target': [], 'time': []}}, 'mouseout': {'state': {'target': ['5', '8', '6', '7', '3', '2', '4', '4'], 'time': [1601, 2784, 2853, 3587, 4222, 4302, 5103, 5256]}, 'edge': {'target': [], 'time': []}}}",9.12,9853.0,,,methods_main,chrome,windows,en-US,0,0,irlexp10_1,2022-03-09 15:16:15.214871,2022-03-09 15:16:22.483329,2022-03-09 15:29:30.195007,0.0,3,live,hedgehog,0,0,7,1,Wed Mar 09 2022 10:16:16 GMT-0500 (Eastern Standard Time),0.002,2_4_24,312,3.37,3.37,13.233333333333333,4,0,0,4,4
,mouselab-mdp,587738.0,0.0-3.0-2.0-9.0,,"[3222, 131, 277]",,,2271,[],"[0, 0, 0, 0, 0, 0, 0, 0, 0, 0, 0, 0, 0]","['', 4, -4, 24, -24, -2, -4, -24, -24, 2, -4, 48, 24]",1598574912455297978,test_begin,29.0,44.0,"[None, None, None]","[2, -4, 48]","['9', '10', '11']","['left', 'left', 'up']","[5029, 5661, 6437]","{'click': {'state': {'target': ['12', '11'], 'time': [2522, 3705]}, 'edge': {'target': [], 'time': []}}, 'mouseover': {'state': {'target': ['9', '12', '10', '11'], 'time': [2119, 2287, 3019, 3102]}, 'edge': {'target': [], 'time': []}}, 'mouseout': {'state': {'target': ['4', '9', '12', '10', '11'], 'time': [967, 2166, 2989, 3051, 4106]}, 'edge': {'target': [], 'time': []}}}",10.81,11476.0,,,methods_main,chrome,windows,en-US,0,0,irlexp10_1,2022-03-09 15:16:15.214871,2022-03-09 15:16:22.483329,2022-03-09 15:29:30.195007,0.0,3,live,hedgehog,0,0,7,1,Wed Mar 09 2022 10:16:16 GMT-0500 (Eastern Standard Time),0.002,2_4_24,312,3.37,3.37,13.233333333333333,2,0,0,2,2
,mouselab-mdp,599258.0,0.0-3.0-2.0-10.0,,"[6941, 88, 767]",,,2271,[],"[0, 0, 0, 0, 0, 0, 0, 0, 0, 0, 0, 0, 0]","['', -2, -8, -48, 24, -4, -4, -24, -48, 2, -8, 24, 24]",8324563381047186377,test_end,30.0,12.0,"[None, None, None]","[2, -8, 24]","['9', '10', '11']","['left', 'left', 'up']","[8406, 8990, 10254]","{'click': {'state': {'target': ['4', '3', '7', '8', '12', '11'], 'time': [2253, 3059, 3748, 4573, 5682, 6498]}, 'edge': {'target': [], 'time': []}}, 'mouseover': {'state': {'target': ['4', '2', '3', '7', '6', '8', '12', '12', '10', '11'], 'time': [2042, 2658, 2824, 3542, 4129, 4279, 5130, 5460, 6148, 6215]}, 'edge': {'target': [], 'time': []}}, 'mouseout': {'state': {'target': ['9', '0', '0', '4', '2', '3', '7', '6', '8', '12', '12', '10', '11'], 'time': [837, 887, 1190, 2626, 2708, 3428, 4095, 4212, 4996, 5161, 6114, 6182, 7163]}, 'edge': {'target': [], 'time': []}}}",11.47,11484.0,,,methods_main,chrome,windows,en-US,0,0,irlexp10_1,2022-03-09 15:16:15.214871,2022-03-09 15:16:22.483329,2022-03-09 15:29:30.195007,0.0,3,live,hedgehog,0,0,7,1,Wed Mar 09 2022 10:16:16 GMT-0500 (Eastern Standard Time),0.002,2_4_24,312,3.37,3.37,13.233333333333333,6,0,0,6,6
,mouselab-mdp,614444.0,0.0-3.0-2.0-11.0,,"[10168, 146, 244]",,,2271,[],"[0, 0, 0, 0, 0, 0, 0, 0, 0, 0, 0, 0, 0]","['', -4, -4, -24, 24, -4, -8, -48, -48, 2, -4, -24, 24]",-5712514638697657456,test_end,31.0,16.0,"[None, None, None]","[2, -4, 24]","['9', '10', '12']","['left', 'left', 'down']","[12188, 12838, 13581]","{'click': {'state': {'target': ['3', '8', '11', '4', '12', '7'], 'time': [4690, 6450, 7381, 8034, 9294, 10301]}, 'edge': {'target': [], 'time': []}}, 'mouseover': {'state': {'target': ['1', '3', '7', '6', '8', '5', '11', '4', '10', '12', '0', '5', '6', '7'], 'time': [4041, 4475, 5408, 6011, 6145, 6896, 7063, 7847, 8648, 9132, 9816, 9848, 9914, 10130]}, 'edge': {'target': [], 'time': []}}, 'mouseout': {'state': {'target': ['1', '0', '1', '3', '7', '6', '8', '5', '11', '4', '10', '12', '0', '5', '6', '7'], 'time': [1304, 1871, 4392, 5293, 5927, 6025, 6862, 6913, 7730, 8548, 8665, 9733, 9832, 9881, 9981, 11135]}, 'edge': {'target': [], 'time': []}}}",14.07,15150.0,,,methods_main,chrome,windows,en-US,0,0,irlexp10_1,2022-03-09 15:16:15.214871,2022-03-09 15:16:22.483329,2022-03-09 15:29:30.195007,0.0,3,live,hedgehog,0,0,7,1,Wed Mar 09 2022 10:16:16 GMT-0500 (Eastern Standard Time),0.002,2_4_24,312,3.37,3.37,13.233333333333333,6,0,0,6,6
,mouselab-mdp,624892.0,0.0-3.0-2.0-12.0,,"[2110, 93, 292]",,,2271,[],"[0, 0, 0, 0, 0, 0, 0, 0, 0, 0, 0, 0, 0]","['', 2, -4, -24, -24, -4, 4, 24, -48, 4, 8, 48, 48]",-4250475312149299523,test_end,32.0,59.0,"[None, None, None]","[4, 8, 48]","['9', '10', '12']","['left', 'left', 'down']","[3933, 4532, 5317]","{'click': {'state': {'target': ['12'], 'time': [2600]}, 'edge': {'target': [], 'time': []}}, 'mouseover': {'state': {'target': ['9', '12'], 'time': [2098, 2350]}, 'edge': {'target': [], 'time': []}}, 'mouseout': {'state': {'target': ['9', '12'], 'time': [2181, 3236]}, 'edge': {'target': [], 'time': []}}}",9.82,10371.0,,,methods_main,chrome,windows,en-US,0,0,irlexp10_1,2022-03-09 15:16:15.214871,2022-03-09 15:16:22.483329,2022-03-09 15:29:30.195007,0.0,3,live,hedgehog,0,0,7,1,Wed Mar 09 2022 10:16:16 GMT-0500 (Eastern Standard Time),0.002,2_4_24,312,3.37,3.37,13.233333333333333,1,0,0,1,1
,mouselab-mdp,635708.0,0.0-3.0-2.0-13.0,,"[3138, 180, 222]",,,2271,[],"[0, 0, 0, 0, 0, 0, 0, 0, 0, 0, 0, 0, 0]","['', 2, 4, -48, 24, -4, 8, 24, -48, 4, -8, 48, 24]",8563081952235477328,test_end,33.0,42.0,"[None, None, None]","[4, -8, 48]","['9', '10', '11']","['left', 'left', 'up']","[4176, 4848, 5576]","{'click': {'state': {'target': ['12', '11'], 'time': [1704, 2791]}, 'edge': {'target': [], 'time': []}}, 'mouseover': {'state': {'target': ['0', '9', '12', '10', '11'], 'time': [1247, 1330, 1497, 2265, 2382]}, 'edge': {'target': [], 'time': []}}, 'mouseout': {'state': {'target': ['0', '0', '0', '9', '12', '10', '11'], 'time': [461, 1222, 1280, 1347, 2231, 2315, 3450]}, 'edge': {'target': [], 'time': []}}}",10.04,10719.0,,,methods_main,chrome,windows,en-US,0,0,irlexp10_1,2022-03-09 15:16:15.214871,2022-03-09 15:16:22.483329,2022-03-09 15:29:30.195007,0.0,3,live,hedgehog,0,0,7,1,Wed Mar 09 2022 10:16:16 GMT-0500 (Eastern Standard Time),0.002,2_4_24,312,3.37,3.37,13.233333333333333,2,0,0,2,2
,mouselab-mdp,646125.0,0.0-3.0-2.0-14.0,,"[3190, 156, 211]",,,2271,[],"[0, 0, 0, 0, 0, 0, 0, 0, 0, 0, 0, 0, 0]","['', -4, 8, -24, -48, 4, -4, 48, 24, 4, 4, 48, -24]",7112299922459130764,test_end,34.0,54.0,"[None, None, None]","[4, 4, 48]","['9', '10', '11']","['left', 'left', 'up']","[4106, 4770, 5475]","{'click': {'state': {'target': ['12', '11'], 'time': [1974, 2840]}, 'edge': {'target': [], 'time': []}}, 'mouseover': {'state': {'target': ['9', '12', '10', '11'], 'time': [1506, 1805, 2374, 2641]}, 'edge': {'target': [], 'time': []}}, 'mouseout': {'state': {'target': ['9', '0', '9', '12', '10', '11'], 'time': [585, 1033, 1623, 2340, 2441, 3289]}, 'edge': {'target': [], 'time': []}}}",9.92,10346.0,,,methods_main,chrome,windows,en-US,0,0,irlexp10_1,2022-03-09 15:16:15.214871,2022-03-09 15:16:22.483329,2022-03-09 15:29:30.195007,0.0,3,live,hedgehog,0,0,7,1,Wed Mar 09 2022 10:16:16 GMT-0500 (Eastern Standard Time),0.002,2_4_24,312,3.37,3.37,13.233333333333333,2,0,0,2,2
,mouselab-mdp,656116.0,0.0-3.0-2.0-15.0,,"[2050, 129, 275]",,,2271,[],"[0, 0, 0, 0, 0, 0, 0, 0, 0, 0, 0, 0, 0]","['', -4, -4, 24, -24, -4, 4, 24, 24, 4, 4, 48, -48]",-7890144164692454837,test_end,35.0,55.0,"[None, None, None]","[4, 4, 48]","['9', '10', '11']","['left', 'left', 'up']","[3524, 4161, 4940]","{'click': {'state': {'target': ['11'], 'time': [2336]}, 'edge': {'target': [], 'time': []}}, 'mouseover': {'state': {'target': ['11'], 'time': [2042]}, 'edge': {'target': [], 'time': []}}, 'mouseout': {'state': {'target': ['0', '11', '11'], 'time': [1483, 2889, 6216]}, 'edge': {'target': [], 'time': []}}}",9.47,9923.0,,,methods_main,chrome,windows,en-US,0,0,irlexp10_1,2022-03-09 15:16:15.214871,2022-03-09 15:16:22.483329,2022-03-09 15:29:30.195007,0.0,3,live,hedgehog,0,0,7,1,Wed Mar 09 2022 10:16:16 GMT-0500 (Eastern Standard Time),0.002,2_4_24,312,3.37,3.37,13.233333333333333,1,0,0,1,1
,mouselab-mdp,666676.0,0.0-3.0-2.0-16.0,,"[4648, 114, 464]",,,2271,[],"[0, 0, 0, 0, 0, 0, 0, 0, 0, 0, 0, 0, 0]","['', -2, 4, -48, -24, -2, 4, 48, -24, 4, -4, 24, -48]",6475017069789500892,test_end,36.0,46.0,"[None, None, None]","[-2, 4, 48]","['5', '6', '7']","['right', 'right', 'up']","[6074, 6682, 7648]","{'click': {'state': {'target': ['11', '4', '3', '7'], 'time': [2030, 3070, 3902, 4695]}, 'edge': {'target': [], 'time': []}}, 'mouseover': {'state': {'target': ['11', '4', '2', '3', '7'], 'time': [1745, 2875, 3513, 3663, 4595]}, 'edge': {'target': [], 'time': []}}, 'mouseout': {'state': {'target': ['9', '11', '4', '2', '3', '7'], 'time': [775, 2509, 3497, 3561, 4298, 5349]}, 'edge': {'target': [], 'time': []}}}",9.43,10522.0,,,methods_main,chrome,windows,en-US,0,0,irlexp10_1,2022-03-09 15:16:15.214871,2022-03-09 15:16:22.483329,2022-03-09 15:29:30.195007,0.0,3,live,hedgehog,0,0,7,1,Wed Mar 09 2022 10:16:16 GMT-0500 (Eastern Standard Time),0.002,2_4_24,312,3.37,3.37,13.233333333333333,4,0,0,4,4
,mouselab-mdp,676925.0,0.0-3.0-2.0-17.0,,"[2490, 44, 162]",,,2271,[],"[0, 0, 0, 0, 0, 0, 0, 0, 0, 0, 0, 0, 0]","['', 2, 4, 24, 48, 2, -4, -24, -48, -2, -8, 48, -48]",-7082365920985033127,test_end,37.0,53.0,"[None, None, None]","[2, 4, 48]","['1', '2', '4']","['up', 'up', 'left']","[4233, 4783, 5464]","{'click': {'state': {'target': ['4'], 'time': [3076]}, 'edge': {'target': [], 'time': []}}, 'mouseover': {'state': {'target': ['4'], 'time': [2917]}, 'edge': {'target': [], 'time': []}}, 'mouseout': {'state': {'target': ['6', '5', '0', '9', '0'], 'time': [914, 964, 1012, 1314, 1799]}, 'edge': {'target': [], 'time': []}}}",9.74,10161.0,,,methods_main,chrome,windows,en-US,0,0,irlexp10_1,2022-03-09 15:16:15.214871,2022-03-09 15:16:22.483329,2022-03-09 15:29:30.195007,0.0,3,live,hedgehog,0,0,7,1,Wed Mar 09 2022 10:16:16 GMT-0500 (Eastern Standard Time),0.002,2_4_24,312,3.37,3.37,13.233333333333333,1,0,0,1,1
,mouselab-mdp,687094.0,0.0-3.0-2.0-18.0,,"[3408, 156, 220]",,,2271,[],"[0, 0, 0, 0, 0, 0, 0, 0, 0, 0, 0, 0, 0]","['', -2, -4, 48, -24, 4, -8, 48, -48, 2, -8, 24, -48]",-8867212192286323683,test_end,38.0,42.0,"[None, None, None]","[4, -8, 48]","['5', '6', '7']","['right', 'right', 'up']","[4955, 5602, 6322]","{'click': {'state': {'target': ['4', '7'], 'time': [2288, 3686]}, 'edge': {'target': [], 'time': []}}, 'mouseover': {'state': {'target': ['4', '7'], 'time': [2193, 3362]}, 'edge': {'target': [], 'time': []}}, 'mouseout': {'state': {'target': ['4', '0', '4', '7', '7', '5'], 'time': [1074, 1839, 2659, 7718, 7851, 7985]}, 'edge': {'target': [], 'time': []}}}",9.55,10091.0,,,methods_main,chrome,windows,en-US,0,0,irlexp10_1,2022-03-09 15:16:15.214871,2022-03-09 15:16:22.483329,2022-03-09 15:29:30.195007,0.0,3,live,hedgehog,0,0,7,1,Wed Mar 09 2022 10:16:16 GMT-0500 (Eastern Standard Time),0.002,2_4_24,312,3.37,3.37,13.233333333333333,2,0,0,2,2
,mouselab-mdp,697509.0,0.0-3.0-2.0-19.0,,"[3240, 222, 393]",,,2271,[],"[0, 0, 0, 0, 0, 0, 0, 0, 0, 0, 0, 0, 0]","['', 4, -8, -48, -24, -2, 8, 24, 48, -2, -8, -48, -24]",6562770673904911116,test_end,39.0,52.0,"[None, None, None]","[-2, 8, 48]","['5', '6', '8']","['right', 'right', 'down']","[4177, 4889, 5777]","{'click': {'state': {'target': ['7', '8'], 'time': [1757, 2765]}, 'edge': {'target': [], 'time': []}}, 'mouseover': {'state': {'target': ['7', '7', '6', '8'], 'time': [1296, 1580, 2348, 2581]}, 'edge': {'target': [], 'time': []}}, 'mouseout': {'state': {'target': ['0', '7', '7', '6', '8'], 'time': [812, 1344, 2313, 2448, 3330]}, 'edge': {'target': [], 'time': []}}}",9.94,10330.0,,,methods_main,chrome,windows,en-US,0,0,irlexp10_1,2022-03-09 15:16:15.214871,2022-03-09 15:16:22.483329,2022-03-09 15:29:30.195007,0.0,3,live,hedgehog,0,0,7,1,Wed Mar 09 2022 10:16:16 GMT-0500 (Eastern Standard Time),0.002,2_4_24,312,3.37,3.37,13.233333333333333,2,0,0,2,2
,mouselab-mdp,547211.0,0.0-3.0-2.0-0.0,,"[4310, 15, 49]",,,2221,[],"[0, 0, 0, 0, 0, 0, 0, 0, 0, 0, 0, 0, 0]","['', -4, 4, 48, 48, -4, -4, 24, 48, -4, -8, -48, -24]",101062465419474540,test_begin,20.0,42.0,"[None, None, None]","[-4, 4, 48]","['1', '2', '3']","['up', 'up', 'right']","[4707, 5218, 5769]","{'click': {'state': {'target': ['9', '10', '11', '1', '2', '3'], 'time': [874, 1350, 1744, 2764, 3142, 3594]}, 'edge': {'target': [], 'time': []}}, 'mouseover': {'state': {'target': ['9', '10', '11', '1', '1', '2', '3'], 'time': [715, 1166, 1616, 2050, 2500, 3001, 3551]}, 'edge': {'target': [], 'time': []}}, 'mouseout': {'state': {'target': ['0', '9', '10', '11', '1', '1', '2', '3', '5', '5'], 'time': [632, 1116, 1566, 1950, 2233, 2934, 3368, 4035, 6804, 8655]}, 'edge': {'target': [], 'time': []}}}",8.4,8715.0,,,methods_main,chrome,windows,en-US,0,0,irlexp10_1,2022-03-09 14:58:21.080074,2022-03-09 15:01:53.905541,2022-03-09 15:11:40.609013,0.0,3,live,hedgehog,0,0,7,1,Wed Mar 09 2022 09:58:23 GMT-0500 (Eastern Standard Time),0.002,2_4_24,312,2.8,2.8,13.316666666666666,6,2,2,2,6
,mouselab-mdp,558145.0,0.0-3.0-2.0-1.0,,"[2196, 20, 357]",,,2221,[],"[0, 0, 0, 0, 0, 0, 0, 0, 0, 0, 0, 0, 0]","['', -2, -4, 48, -48, 4, 8, 48, 24, 2, -4, -48, -24]",-6802951220459882826,test_begin,21.0,57.0,"[None, None, None]","[4, 8, 48]","['5', '6', '7']","['right', 'right', 'up']","[2640, 3150, 4021]","{'click': {'state': {'target': ['5', '6', '7'], 'time': [910, 1320, 1706]}, 'edge': {'target': [], 'time': []}}, 'mouseover': {'state': {'target': ['5', '6', '7'], 'time': [661, 1128, 1528]}, 'edge': {'target': [], 'time': []}}, 'mouseout': {'state': {'target': ['0', '5', '6', '7', '7', '6', '8'], 'time': [627, 1078, 1495, 4848, 4898, 4947, 4964]}, 'edge': {'target': [], 'time': []}}}",9.45,10904.0,,,methods_main,chrome,windows,en-US,0,0,irlexp10_1,2022-03-09 14:58:21.080074,2022-03-09 15:01:53.905541,2022-03-09 15:11:40.609013,0.0,3,live,hedgehog,0,0,7,1,Wed Mar 09 2022 09:58:23 GMT-0500 (Eastern Standard Time),0.002,2_4_24,312,2.8,2.8,13.316666666666666,3,1,1,1,3
,mouselab-mdp,571987.0,0.0-3.0-2.0-2.0,,"[9842, 87, 165]",,,2221,[],"[0, 0, 0, 0, 0, 0, 0, 0, 0, 0, 0, 0, 0]","['', -2, 4, -24, -24, -4, -8, 48, -24, 4, -8, -24, 24]",-51234349377613834,test_begin,22.0,24.0,"[None, None, None]","[-4, -8, 48]","['5', '6', '7']","['right', 'right', 'up']","[11199, 11786, 12448]","{'click': {'state': {'target': ['9', '10', '11', '12', '5', '6', '8', '1', '2', '3', '4', '7'], 'time': [2283, 3192, 4104, 4763, 5561, 6021, 6457, 7253, 7665, 8051, 8640, 9560]}, 'edge': {'target': [], 'time': []}}, 'mouseover': {'state': {'target': ['9', '10', '11', '11', '12', '0', '5', '6', '8', '1', '2', '3', '4', '7'], 'time': [2184, 3040, 3541, 3991, 4558, 5142, 5443, 5826, 6310, 7156, 7528, 7961, 8478, 9346]}, 'edge': {'target': [], 'time': []}}, 'mouseout': {'state': {'target': ['0', '9', '10', '11', '11', '10', '12', '0', '5', '6', '8', '6', '1', '2', '3', '2', '4', '2', '7', '8'], 'time': [1942, 2557, 3508, 3591, 4492, 4542, 4975, 5192, 5776, 6260, 6677, 6760, 7478, 7911, 8378, 8445, 8945, 8995, 9880, 13533]}, 'edge': {'target': [], 'time': []}}}",12.95,13815.0,,,methods_main,chrome,windows,en-US,0,0,irlexp10_1,2022-03-09 14:58:21.080074,2022-03-09 15:01:53.905541,2022-03-09 15:11:40.609013,0.0,3,live,hedgehog,0,0,7,1,Wed Mar 09 2022 09:58:23 GMT-0500 (Eastern Standard Time),0.002,2_4_24,312,2.8,2.8,13.316666666666666,12,3,3,6,12
,mouselab-mdp,582304.0,0.0-3.0-2.0-3.0,,"[5467, 34, 97]",,,2221,[],"[0, 0, 0, 0, 0, 0, 0, 0, 0, 0, 0, 0, 0]","['', -4, -4, -24, 48, 4, 8, 24, -24, -2, 8, 24, 48]",-285119094507268281,test_begin,23.0,28.0,"[None, None, None]","[4, 8, 24]","['5', '6', '7']","['right', 'right', 'up']","[6204, 6732, 7329]","{'click': {'state': {'target': ['1', '2', '9', '10', '5', '6', '7', '8'], 'time': [1282, 1766, 2531, 2973, 3622, 4026, 4661, 5210]}, 'edge': {'target': [], 'time': []}}, 'mouseover': {'state': {'target': ['1', '2', '9', '10', '0', '5', '6', '7', '8'], 'time': [959, 1660, 2344, 2811, 3328, 3411, 3862, 4579, 5062]}, 'edge': {'target': [], 'time': []}}, 'mouseout': {'state': {'target': ['0', '1', '2', '1', '9', '10', '9', '0', '5', '6', '7', '6', '8'], 'time': [892, 1576, 2144, 2194, 2761, 3228, 3294, 3378, 3811, 4495, 4918, 5012, 5379]}, 'edge': {'target': [], 'time': []}}}",9.75,10291.0,,,methods_main,chrome,windows,en-US,0,0,irlexp10_1,2022-03-09 14:58:21.080074,2022-03-09 15:01:53.905541,2022-03-09 15:11:40.609013,0.0,3,live,hedgehog,0,0,7,1,Wed Mar 09 2022 09:58:23 GMT-0500 (Eastern Standard Time),0.002,2_4_24,312,2.8,2.8,13.316666666666666,8,3,3,2,8
,mouselab-mdp,591401.0,0.0-3.0-2.0-4.0,,"[6292, 64, 98]",,,2221,[],"[0, 0, 0, 0, 0, 0, 0, 0, 0, 0, 0, 0, 0]","['', -4, 8, 48, -48, -4, -4, -48, 48, -2, 8, 24, 48]",-4689310195682358749,test_begin,24.0,45.0,"[None, None, None]","[-4, 8, 48]","['1', '2', '3']","['up', 'up', 'right']","[6758, 7318, 7920]","{'click': {'state': {'target': ['9', '10', '5', '6', '1', '2', '3'], 'time': [951, 1441, 2644, 3072, 3844, 4286, 5592]}, 'edge': {'target': [], 'time': []}}, 'mouseover': {'state': {'target': ['9', '10', '0', '5', '5', '6', '1', '2', '3'], 'time': [798, 1382, 1816, 2166, 2566, 2884, 3801, 4101, 5419]}, 'edge': {'target': [], 'time': []}}, 'mouseout': {'state': {'target': ['0', '9', '10', '9', '0', '5', '5', '6', '1', '2', '3', '2', '2', '1', '0'], 'time': [765, 1303, 1732, 1783, 1849, 2250, 2817, 3300, 4051, 5386, 5869, 5953, 8755, 8788, 8805]}, 'edge': {'target': [], 'time': []}}}",8.47,9069.0,,,methods_main,chrome,windows,en-US,0,0,irlexp10_1,2022-03-09 14:58:21.080074,2022-03-09 15:01:53.905541,2022-03-09 15:11:40.609013,0.0,3,live,hedgehog,0,0,7,1,Wed Mar 09 2022 09:58:23 GMT-0500 (Eastern Standard Time),0.002,2_4_24,312,2.8,2.8,13.316666666666666,7,3,3,1,7
,mouselab-mdp,602175.0,0.0-3.0-2.0-5.0,,"[4962, 69, 167]",,,2221,[],"[0, 0, 0, 0, 0, 0, 0, 0, 0, 0, 0, 0, 0]","['', -2, -8, 48, 24, 4, 4, 48, 24, 2, -8, -24, -48]",-6480731593057875222,test_begin,25.0,51.0,"[None, None, None]","[4, 4, 48]","['5', '6', '7']","['right', 'right', 'up']","[5477, 6032, 6697]","{'click': {'state': {'target': ['1', '2', '5', '6', '7'], 'time': [1733, 2167, 3449, 3859, 4355]}, 'edge': {'target': [], 'time': []}}, 'mouseover': {'state': {'target': ['1', '2', '1', '2', '3', '5', '5', '6', '7', '8'], 'time': [791, 1425, 1575, 2025, 2493, 2809, 3377, 3777, 4195, 4711]}, 'edge': {'target': [], 'time': []}}, 'mouseout': {'state': {'target': ['1', '2', '1', '2', '3', '5', '5', '6', '7', '6', '8', '8'], 'time': [875, 1542, 1942, 2459, 2709, 2859, 3610, 4162, 4611, 4661, 4911, 7580]}, 'edge': {'target': [], 'time': []}}}",9.52,10745.0,,,methods_main,chrome,windows,en-US,0,0,irlexp10_1,2022-03-09 14:58:21.080074,2022-03-09 15:01:53.905541,2022-03-09 15:11:40.609013,0.0,3,live,hedgehog,0,0,7,1,Wed Mar 09 2022 09:58:23 GMT-0500 (Eastern Standard Time),0.002,2_4_24,312,2.8,2.8,13.316666666666666,5,2,2,1,5
,mouselab-mdp,613932.0,0.0-3.0-2.0-6.0,,"[8577, 116, 137]",,,2221,[],"[0, 0, 0, 0, 0, 0, 0, 0, 0, 0, 0, 0, 0]","['', 2, -8, 48, -48, -2, 8, -48, 24, 2, 8, -24, -48]",-5298439851260357307,test_begin,26.0,33.0,"[None, None, None]","[2, -8, 48]","['1', '2', '3']","['up', 'up', 'right']","[9108, 9714, 10353]","{'click': {'state': {'target': ['1', '5', '9', '2', '10', '11', '12', '4', '3'], 'time': [979, 1747, 2333, 3103, 3902, 4932, 5419, 7084, 8018]}, 'edge': {'target': [], 'time': []}}, 'mouseover': {'state': {'target': ['1', '5', '0', '9', '2', '10', '11', '12', '7', '7', '4', '3'], 'time': [873, 1640, 2007, 2091, 2825, 3775, 4787, 5227, 5894, 6261, 6945, 7751]}, 'edge': {'target': [], 'time': []}}, 'mouseout': {'state': {'target': ['5', '0', '1', '5', '0', '9', '1', '2', '10', '11', '10', '12', '7', '7', '4', '2', '3', '7', '8'], 'time': [172, 439, 1573, 1957, 2057, 2691, 2775, 3425, 4242, 5110, 5210, 5777, 5927, 6628, 7311, 7412, 8212, 11265, 11348]}, 'edge': {'target': [], 'time': []}}}",10.85,11725.0,,,methods_main,chrome,windows,en-US,0,0,irlexp10_1,2022-03-09 14:58:21.080074,2022-03-09 15:01:53.905541,2022-03-09 15:11:40.609013,0.0,3,live,hedgehog,0,0,7,1,Wed Mar 09 2022 09:58:23 GMT-0500 (Eastern Standard Time),0.002,2_4_24,312,2.8,2.8,13.316666666666666,9,3,2,4,9
,mouselab-mdp,625727.0,0.0-3.0-2.0-7.0,,"[8442, 70, 64]",,,2221,[],"[0, 0, 0, 0, 0, 0, 0, 0, 0, 0, 0, 0, 0]","['', -2, 8, 24, -24, -4, -4, 24, -24, -2, -4, 48, -24]",116491454106625506,test_begin,27.0,33.0,"[None, None, None]","[-2, -4, 48]","['9', '10', '11']","['left', 'left', 'up']","[8994, 9558, 10119]","{'click': {'state': {'target': ['5', '1', '9', '2', '3', '4', '10', '11', '12'], 'time': [969, 2259, 2903, 3881, 4469, 5033, 5704, 6943, 8087]}, 'edge': {'target': [], 'time': []}}, 'mouseover': {'state': {'target': ['5', '1', '9', '2', '3', '4', '10', '11', '11', '12'], 'time': [864, 2115, 2749, 3699, 4317, 4834, 5568, 6402, 6822, 7352]}, 'edge': {'target': [], 'time': []}}, 'mouseout': {'state': {'target': ['0', '5', '1', '9', '2', '3', '2', '4', '10', '11', '11', '10', '12'], 'time': [781, 1181, 2649, 3549, 4283, 4717, 4800, 5367, 6368, 6418, 7219, 7302, 8236]}, 'edge': {'target': [], 'time': []}}}",10.62,11768.0,,,methods_main,chrome,windows,en-US,0,0,irlexp10_1,2022-03-09 14:58:21.080074,2022-03-09 15:01:53.905541,2022-03-09 15:11:40.609013,0.0,3,live,hedgehog,0,0,7,1,Wed Mar 09 2022 09:58:23 GMT-0500 (Eastern Standard Time),0.002,2_4_24,312,2.8,2.8,13.316666666666666,9,3,2,4,9
,mouselab-mdp,634491.0,0.0-3.0-2.0-8.0,,"[4239, 77, 102]",,,2221,[],"[0, 0, 0, 0, 0, 0, 0, 0, 0, 0, 0, 0, 0]","['', 4, 8, 24, 48, -4, -8, -24, -24, 4, -4, 24, 48]",-6519267732573937633,test_begin,28.0,55.0,"[None, None, None]","[4, 8, 48]","['1', '2', '4']","['up', 'up', 'left']","[4684, 5258, 5850]","{'click': {'state': {'target': ['5', '1', '2', '3', '4'], 'time': [929, 1935, 2563, 3087, 3961]}, 'edge': {'target': [], 'time': []}}, 'mouseover': {'state': {'target': ['5', '1', '2', '3', '4'], 'time': [809, 1910, 2444, 2961, 3762]}, 'edge': {'target': [], 'time': []}}, 'mouseout': {'state': {'target': ['0', '5', '1', '2', '3', '2', '4', '2', '3'], 'time': [626, 1410, 2394, 2928, 3411, 3478, 4162, 4212, 4262]}, 'edge': {'target': [], 'time': []}}}",8.45,8735.0,,,methods_main,chrome,windows,en-US,0,0,irlexp10_1,2022-03-09 14:58:21.080074,2022-03-09 15:01:53.905541,2022-03-09 15:11:40.609013,0.0,3,live,hedgehog,0,0,7,1,Wed Mar 09 2022 09:58:23 GMT-0500 (Eastern Standard Time),0.002,2_4_24,312,2.8,2.8,13.316666666666666,5,2,1,2,5
,mouselab-mdp,643357.0,0.0-3.0-2.0-9.0,,"[3251, 94, 41]",,,2221,[],"[0, 0, 0, 0, 0, 0, 0, 0, 0, 0, 0, 0, 0]","['', 2, 8, -48, 48, 4, 4, -24, 48, -4, -4, 48, -24]",-9094639660769570359,test_begin,29.0,54.0,"[None, None, None]","[2, 8, 48]","['1', '2', '4']","['up', 'up', 'left']","[3778, 4371, 4899]","{'click': {'state': {'target': ['1', '2', '3', '4'], 'time': [1029, 1625, 2157, 2803]}, 'edge': {'target': [], 'time': []}}, 'mouseover': {'state': {'target': ['1', '2', '3', '4'], 'time': [837, 1521, 2038, 2672]}, 'edge': {'target': [], 'time': []}}, 'mouseout': {'state': {'target': ['0', '1', '2', '3', '2', '4', '1', '0'], 'time': [420, 1471, 2004, 2472, 2605, 3189, 5591, 5641]}, 'edge': {'target': [], 'time': []}}}",8.53,8838.0,,,methods_main,chrome,windows,en-US,0,0,irlexp10_1,2022-03-09 14:58:21.080074,2022-03-09 15:01:53.905541,2022-03-09 15:11:40.609013,0.0,3,live,hedgehog,0,0,7,1,Wed Mar 09 2022 09:58:23 GMT-0500 (Eastern Standard Time),0.002,2_4_24,312,2.8,2.8,13.316666666666666,4,1,1,2,4
,mouselab-mdp,653962.0,0.0-3.0-2.0-10.0,,"[7381, 52, 137]",,,2221,[],"[0, 0, 0, 0, 0, 0, 0, 0, 0, 0, 0, 0, 0]","['', -4, 8, -48, 48, 2, -4, 48, -48, 2, -8, 24, -48]",5258592950055133126,test_end,30.0,38.0,"[None, None, None]","[2, -4, 48]","['5', '6', '7']","['right', 'right', 'up']","[8067, 8618, 9270]","{'click': {'state': {'target': ['9', '10', '11', '12', '1', '5', '6', '7'], 'time': [1073, 1661, 2801, 3752, 4529, 5746, 6338, 7048]}, 'edge': {'target': [], 'time': []}}, 'mouseover': {'state': {'target': ['9', '10', '11', '11', '12', '1', '2', '6', '5', '6', '7'], 'time': [975, 1559, 2276, 2606, 3561, 4295, 4978, 5329, 5712, 6229, 6947]}, 'edge': {'target': [], 'time': []}}, 'mouseout': {'state': {'target': ['9', '10', '11', '11', '10', '12', '9', '1', '2', '6', '5', '6', '7', '6'], 'time': [1476, 2226, 2343, 3027, 3161, 4111, 4195, 4895, 5262, 5362, 6129, 6897, 10016, 10049]}, 'edge': {'target': [], 'time': []}}}",9.77,10574.0,,,methods_main,chrome,windows,en-US,0,0,irlexp10_1,2022-03-09 14:58:21.080074,2022-03-09 15:01:53.905541,2022-03-09 15:11:40.609013,0.0,3,live,hedgehog,0,0,7,1,Wed Mar 09 2022 09:58:23 GMT-0500 (Eastern Standard Time),0.002,2_4_24,312,2.8,2.8,13.316666666666666,8,3,2,3,8
,mouselab-mdp,666344.0,0.0-3.0-2.0-11.0,,"[9346, 30, 57]",,,2221,[],"[0, 0, 0, 0, 0, 0, 0, 0, 0, 0, 0, 0, 0]","['', 4, 8, -48, -48, -4, 8, -48, -24, 4, 4, 24, -24]",5673770806327288351,test_end,31.0,20.0,"[None, None, None]","[4, 4, 24]","['9', '10', '11']","['left', 'left', 'up']","[9853, 10372, 10932]","{'click': {'state': {'target': ['5', '1', '2', '3', '4', '9', '10', '11', '12', '6', '7', '8'], 'time': [852, 1512, 2203, 2736, 3340, 4054, 5170, 5870, 6508, 7618, 8232, 8888]}, 'edge': {'target': [], 'time': []}}, 'mouseover': {'state': {'target': ['5', '1', '2', '3', '4', '9', '10', '11', '12', '6', '7', '8'], 'time': [733, 1383, 2067, 2584, 3135, 3835, 4736, 5737, 6287, 7538, 8105, 8806]}, 'edge': {'target': [], 'time': []}}, 'mouseout': {'state': {'target': ['0', '5', '1', '2', '3', '2', '4', '9', '10', '10', '11', '10', '12', '6', '7', '6', '8'], 'time': [683, 1216, 2034, 2567, 3051, 3118, 3735, 4686, 5520, 5687, 6154, 6270, 6788, 8055, 8572, 8689, 9190]}, 'edge': {'target': [], 'time': []}}}",11.44,12355.0,,,methods_main,chrome,windows,en-US,0,0,irlexp10_1,2022-03-09 14:58:21.080074,2022-03-09 15:01:53.905541,2022-03-09 15:11:40.609013,0.0,3,live,hedgehog,0,0,7,1,Wed Mar 09 2022 09:58:23 GMT-0500 (Eastern Standard Time),0.002,2_4_24,312,2.8,2.8,13.316666666666666,12,3,3,6,12
,mouselab-mdp,681000.0,0.0-3.0-2.0-12.0,,"[10585, 101, 29]",,,2221,[],"[0, 0, 0, 0, 0, 0, 0, 0, 0, 0, 0, 0, 0]","['', -4, 8, 24, 24, -2, -8, -48, -24, -4, -8, 24, 24]",5782292848891634944,test_end,32.0,18.0,"[None, None, None]","[-4, 8, 24]","['1', '2', '3']","['up', 'up', 'right']","[11066, 11667, 12196]","{'click': {'state': {'target': ['5', '1', '9', '6', '2', '4', '3', '10', '11', '12'], 'time': [904, 1628, 2291, 3863, 5754, 7348, 7904, 8718, 9468, 10178]}, 'edge': {'target': [], 'time': []}}, 'mouseover': {'state': {'target': ['5', '1', '9', '6', '6', '7', '2', '4', '3', '10', '11', '12'], 'time': [708, 1475, 2192, 3142, 3576, 4259, 5044, 7145, 7679, 8513, 9164, 9814]}, 'edge': {'target': [], 'time': []}}, 'mouseout': {'state': {'target': ['0', '5', '1', '9', '5', '6', '6', '7', '2', '4', '2', '3', '1', '9', '10', '11', '10', '12', '5'], 'time': [534, 1342, 2025, 2908, 3109, 3325, 4109, 4693, 7012, 7562, 7629, 8313, 8379, 8480, 8997, 9731, 9797, 10381, 10498]}, 'edge': {'target': [], 'time': []}}}",12.7,14625.0,,,methods_main,chrome,windows,en-US,0,0,irlexp10_1,2022-03-09 14:58:21.080074,2022-03-09 15:01:53.905541,2022-03-09 15:11:40.609013,0.0,3,live,hedgehog,0,0,7,1,Wed Mar 09 2022 09:58:23 GMT-0500 (Eastern Standard Time),0.002,2_4_24,312,2.8,2.8,13.316666666666666,10,3,3,4,10
,mouselab-mdp,691624.0,0.0-3.0-2.0-13.0,,"[2610, 106, 52]",,,2221,[],"[0, 0, 0, 0, 0, 0, 0, 0, 0, 0, 0, 0, 0]","['', 4, 4, 48, -24, 4, -4, -48, 48, 2, -8, 48, 24]",-8580200434703875697,test_end,33.0,53.0,"[None, None, None]","[4, 4, 48]","['1', '2', '3']","['up', 'up', 'right']","[3716, 4309, 4856]","{'click': {'state': {'target': ['1', '2', '3'], 'time': [1540, 2382, 2874]}, 'edge': {'target': [], 'time': []}}, 'mouseover': {'state': {'target': ['1', '2', '3'], 'time': [1350, 2017, 2717]}, 'edge': {'target': [], 'time': []}}, 'mouseout': {'state': {'target': ['0', '1', '0', '1', '2', '3', '1', '0'], 'time': [649, 749, 1250, 1950, 2667, 5520, 5604, 5654]}, 'edge': {'target': [], 'time': []}}}",10.11,10596.0,,,methods_main,chrome,windows,en-US,0,0,irlexp10_1,2022-03-09 14:58:21.080074,2022-03-09 15:01:53.905541,2022-03-09 15:11:40.609013,0.0,3,live,hedgehog,0,0,7,1,Wed Mar 09 2022 09:58:23 GMT-0500 (Eastern Standard Time),0.002,2_4_24,312,2.8,2.8,13.316666666666666,3,1,1,1,3
,mouselab-mdp,700865.0,0.0-3.0-2.0-14.0,,"[4135, 101, 75]",,,2221,[],"[0, 0, 0, 0, 0, 0, 0, 0, 0, 0, 0, 0, 0]","['', 4, 8, 24, 24, -4, -4, -24, -48, 2, -4, 48, 48]",2060778120775651880,test_end,34.0,32.0,"[None, None, None]","[4, 8, 24]","['1', '2', '3']","['up', 'up', 'right']","[4861, 5458, 6032]","{'click': {'state': {'target': ['1', '2', '3', '4'], 'time': [1289, 1965, 2513, 3238]}, 'edge': {'target': [], 'time': []}}, 'mouseover': {'state': {'target': ['1', '2', '3', '4', '9', '7'], 'time': [1086, 1936, 2370, 3070, 3771, 4422]}, 'edge': {'target': [], 'time': []}}, 'mouseout': {'state': {'target': ['8', '5', '1', '2', '3', '2', '4', '9', '7', '8'], 'time': [18, 301, 1770, 2320, 2904, 3020, 3671, 4321, 4438, 6873]}, 'edge': {'target': [], 'time': []}}}",8.73,9214.0,,,methods_main,chrome,windows,en-US,0,0,irlexp10_1,2022-03-09 14:58:21.080074,2022-03-09 15:01:53.905541,2022-03-09 15:11:40.609013,0.0,3,live,hedgehog,0,0,7,1,Wed Mar 09 2022 09:58:23 GMT-0500 (Eastern Standard Time),0.002,2_4_24,312,2.8,2.8,13.316666666666666,4,1,1,2,4
,mouselab-mdp,711057.0,0.0-3.0-2.0-15.0,,"[4608, 139, 111]",,,2221,[],"[0, 0, 0, 0, 0, 0, 0, 0, 0, 0, 0, 0, 0]","['', -2, 8, -24, 48, 2, -4, 48, 24, -2, 8, -24, -24]",753059734345716889,test_end,35.0,41.0,"[None, None, None]","[2, -4, 48]","['5', '6', '7']","['right', 'right', 'up']","[5101, 5730, 6336]","{'click': {'state': {'target': ['1', '9', '5', '6', '7'], 'time': [928, 2057, 2782, 3515, 4201]}, 'edge': {'target': [], 'time': []}}, 'mouseover': {'state': {'target': ['1', '2', '9', '0', '5', '6', '7'], 'time': [736, 1321, 1871, 2438, 2588, 3255, 4089]}, 'edge': {'target': [], 'time': []}}, 'mouseout': {'state': {'target': ['0', '1', '2', '1', '9', '0', '5', '6', '7', '6', '8'], 'time': [570, 1237, 1671, 1704, 2404, 2538, 3238, 4022, 7058, 7108, 7158]}, 'edge': {'target': [], 'time': []}}}",9.49,10166.0,,,methods_main,chrome,windows,en-US,0,0,irlexp10_1,2022-03-09 14:58:21.080074,2022-03-09 15:01:53.905541,2022-03-09 15:11:40.609013,0.0,3,live,hedgehog,0,0,7,1,Wed Mar 09 2022 09:58:23 GMT-0500 (Eastern Standard Time),0.002,2_4_24,312,2.8,2.8,13.316666666666666,5,3,1,1,5
,mouselab-mdp,722407.0,0.0-3.0-2.0-16.0,,"[8129, 6, 54]",,,2221,[],"[0, 0, 0, 0, 0, 0, 0, 0, 0, 0, 0, 0, 0]","['', -4, -8, -48, 24, 2, -8, -48, 48, 2, -8, -24, 24]",-3537338363954667840,test_end,36.0,34.0,"[None, None, None]","[2, -8, 48]","['5', '6', '8']","['right', 'right', 'down']","[8636, 9142, 9707]","{'click': {'state': {'target': ['1', '5', '6', '9', '10', '11', '7', '8'], 'time': [989, 1691, 2271, 3109, 3714, 4970, 5616, 6276]}, 'edge': {'target': [], 'time': []}}, 'mouseover': {'state': {'target': ['0', '1', '5', '6', '0', '9', '10', '11', '7', '8', '12'], 'time': [694, 861, 1578, 2162, 2846, 2913, 3580, 4898, 5382, 6149, 7166]}, 'edge': {'target': [], 'time': []}}, 'mouseout': {'state': {'target': ['0', '0', '1', '5', '6', '5', '0', '9', '10', '11', '1', '7', '6', '8', '12'], 'time': [571, 778, 1212, 2112, 2729, 2829, 2879, 3530, 4798, 5282, 5348, 5965, 5999, 6533, 7833]}, 'edge': {'target': [], 'time': []}}}",10.22,11316.0,,,methods_main,chrome,windows,en-US,0,0,irlexp10_1,2022-03-09 14:58:21.080074,2022-03-09 15:01:53.905541,2022-03-09 15:11:40.609013,0.0,3,live,hedgehog,0,0,7,1,Wed Mar 09 2022 09:58:23 GMT-0500 (Eastern Standard Time),0.002,2_4_24,312,2.8,2.8,13.316666666666666,8,3,2,3,8
,mouselab-mdp,732313.0,0.0-3.0-2.0-17.0,,"[6745, 70, 49]",,,2221,[],"[0, 0, 0, 0, 0, 0, 0, 0, 0, 0, 0, 0, 0]","['', -2, 8, -24, 48, 2, 4, -48, 24, 4, -4, 48, 48]",3761354316659213714,test_end,37.0,40.0,"[None, None, None]","[4, -4, 48]","['9', '10', '12']","['left', 'left', 'down']","[7229, 7785, 8331]","{'click': {'state': {'target': ['1', '5', '6', '7', '8', '9', '10', '12'], 'time': [1274, 1958, 2531, 3150, 3722, 4882, 5512, 6212]}, 'edge': {'target': [], 'time': []}}, 'mouseover': {'state': {'target': ['1', '1', '5', '6', '7', '8', '9', '10', '12'], 'time': [742, 1159, 1843, 2460, 3011, 3544, 4728, 5479, 6113]}, 'edge': {'target': [], 'time': []}}, 'mouseout': {'state': {'target': ['0', '1', '1', '5', '6', '7', '6', '8', '9', '10', '12'], 'time': [191, 809, 1760, 2393, 2944, 3427, 3511, 4261, 5362, 6080, 9086]}, 'edge': {'target': [], 'time': []}}}",9.48,9877.0,,,methods_main,chrome,windows,en-US,0,0,irlexp10_1,2022-03-09 14:58:21.080074,2022-03-09 15:01:53.905541,2022-03-09 15:11:40.609013,0.0,3,live,hedgehog,0,0,7,1,Wed Mar 09 2022 09:58:23 GMT-0500 (Eastern Standard Time),0.002,2_4_24,312,2.8,2.8,13.316666666666666,8,3,2,3,8
,mouselab-mdp,743464.0,0.0-3.0-2.0-18.0,,"[8083, 104, 95]",,,2221,[],"[0, 0, 0, 0, 0, 0, 0, 0, 0, 0, 0, 0, 0]","['', 4, 4, 48, 24, 4, -4, 24, -48, -2, -8, -24, -48]",566248321882092422,test_end,38.0,22.0,"[None, None, None]","[4, 4, 24]","['1', '2', '4']","['up', 'up', 'left']","[8669, 9271, 9863]","{'click': {'state': {'target': ['9', '5', '6', '8', '7', '10', '11', '4', '1', '2'], 'time': [1100, 1712, 2236, 3010, 3586, 4441, 5226, 5739, 6678, 7957]}, 'edge': {'target': [], 'time': []}}, 'mouseover': {'state': {'target': ['9', '5', '6', '8', '7', '10', '11', '4', '2', '1', '2', '3'], 'time': [810, 1594, 2177, 2845, 3429, 4262, 5063, 5597, 6131, 6614, 7749, 8116]}, 'edge': {'target': [], 'time': []}}, 'mouseout': {'state': {'target': ['9', '0', '9', '5', '6', '8', '6', '7', '9', '10', '11', '4', '2', '1', '2', '3'], 'time': [309, 359, 1477, 2078, 2611, 3295, 3362, 3996, 4213, 4980, 5464, 6047, 6514, 7632, 8099, 8132]}, 'edge': {'target': [], 'time': []}}}",10.35,11121.0,,,methods_main,chrome,windows,en-US,0,0,irlexp10_1,2022-03-09 14:58:21.080074,2022-03-09 15:01:53.905541,2022-03-09 15:11:40.609013,0.0,3,live,hedgehog,0,0,7,1,Wed Mar 09 2022 09:58:23 GMT-0500 (Eastern Standard Time),0.002,2_4_24,312,2.8,2.8,13.316666666666666,10,3,3,4,10
,mouselab-mdp,753842.0,0.0-3.0-2.0-19.0,,"[7270, 18, 113]",,,2221,[],"[0, 0, 0, 0, 0, 0, 0, 0, 0, 0, 0, 0, 0]","['', -2, 8, 24, 48, 2, 4, -24, 24, 4, 8, 48, 24]",2790125680448452122,test_end,39.0,51.0,"[None, None, None]","[4, 8, 48]","['9', '10', '11']","['left', 'left', 'up']","[7756, 8261, 8890]","{'click': {'state': {'target': ['1', '5', '6', '7', '8', '9', '10', '12', '11'], 'time': [863, 1450, 1920, 2468, 3064, 4168, 5176, 5675, 7013]}, 'edge': {'target': [], 'time': []}}, 'mouseover': {'state': {'target': ['1', '5', '6', '7', '8', '9', '10', '10', '12', '11'], 'time': [720, 1286, 1703, 2337, 2904, 4022, 4639, 5054, 5540, 6157]}, 'edge': {'target': [], 'time': []}}, 'mouseout': {'state': {'target': ['0', '1', '5', '6', '7', '6', '8', '9', '10', '10', '12', '10', '11', '9'], 'time': [202, 1203, 1653, 2287, 2788, 2854, 3538, 4589, 4723, 5456, 5990, 6091, 7158, 7225]}, 'edge': {'target': [], 'time': []}}}",9.38,10350.0,,,methods_main,chrome,windows,en-US,0,0,irlexp10_1,2022-03-09 14:58:21.080074,2022-03-09 15:01:53.905541,2022-03-09 15:11:40.609013,0.0,3,live,hedgehog,0,0,7,1,Wed Mar 09 2022 09:58:23 GMT-0500 (Eastern Standard Time),0.002,2_4_24,312,2.8,2.8,13.316666666666666,9,3,2,4,9
,mouselab-mdp,364440.0,0.0-3.0-2.0-0.0,,"[3449, 86, 226]",,,2210,[],"[0, 0, 0, 0, 0, 0, 0, 0, 0, 0, 0, 0, 0]","['', -2, 8, 24, 48, 2, 4, -24, 24, 4, 8, 48, 24]",2790125680448452122,test_begin,20.0,57.0,"[None, None, None]","[4, 8, 48]","['9', '10', '11']","['left', 'left', 'up']","[4954, 5544, 6266]","{'click': {'state': {'target': ['9', '1', '11'], 'time': [2512, 3076, 4110]}, 'edge': {'target': [], 'time': []}}, 'mouseover': {'state': {'target': ['0', '0', '9', '1', '11', '10'], 'time': [1735, 2151, 2352, 2869, 3986, 4337]}, 'edge': {'target': [], 'time': []}}, 'mouseout': {'state': {'target': ['1', '0', '0', '0', '9', '1', '11'], 'time': [1082, 1510, 1751, 2202, 2684, 3420, 4270]}, 'edge': {'target': [], 'time': []}}}",9.51,10078.0,,,methods_main,chrome,windows,en-US,0,0,irlexp10_1,2022-03-09 14:54:44.745413,2022-03-09 14:55:04.281281,2022-03-09 15:05:56.945212,0.0,3,live,hedgehog,0,0,7,1,Wed Mar 09 2022 09:54:48 GMT-0500 (Eastern Standard Time),0.002,2_4_24,312,2.66,2.66,11.2,3,2,0,1,3
,mouselab-mdp,375673.0,0.0-3.0-2.0-1.0,,"[3155, 192, 183]",,,2210,[],"[0, 0, 0, 0, 0, 0, 0, 0, 0, 0, 0, 0, 0]","['', 2, 4, -48, 24, -4, 8, 24, -48, 4, -8, 48, 24]",8563081952235477328,test_begin,21.0,42.0,"[None, None, None]","[4, -8, 48]","['9', '10', '11']","['left', 'left', 'up']","[4923, 5604, 6280]","{'click': {'state': {'target': ['9', '11'], 'time': [2314, 4041]}, 'edge': {'target': [], 'time': []}}, 'mouseover': {'state': {'target': ['9', '1', '11'], 'time': [2175, 2723, 3876]}, 'edge': {'target': [], 'time': []}}, 'mouseout': {'state': {'target': ['10', '9', '9', '1', '11'], 'time': [1071, 1422, 2507, 3491, 4360]}, 'edge': {'target': [], 'time': []}}}",10.77,11139.0,,,methods_main,chrome,windows,en-US,0,0,irlexp10_1,2022-03-09 14:54:44.745413,2022-03-09 14:55:04.281281,2022-03-09 15:05:56.945212,0.0,3,live,hedgehog,0,0,7,1,Wed Mar 09 2022 09:54:48 GMT-0500 (Eastern Standard Time),0.002,2_4_24,312,2.66,2.66,11.2,2,1,0,1,2
,mouselab-mdp,385521.0,0.0-3.0-2.0-2.0,,"[3042, 88, 86]",,,2210,[],"[0, 0, 0, 0, 0, 0, 0, 0, 0, 0, 0, 0, 0]","['', 4, -8, 48, 24, -2, -4, 24, -24, 4, -4, 48, 48]",-8930756420240891119,test_begin,22.0,46.0,"[None, None, None]","[4, -4, 48]","['9', '10', '11']","['left', 'left', 'up']","[4466, 5124, 5706]","{'click': {'state': {'target': ['9', '11'], 'time': [2200, 3461]}, 'edge': {'target': [], 'time': []}}, 'mouseover': {'state': {'target': ['9', '1', '11'], 'time': [1865, 2599, 3315]}, 'edge': {'target': [], 'time': []}}, 'mouseout': {'state': {'target': ['9', '9', '1'], 'time': [997, 2515, 3149]}, 'edge': {'target': [], 'time': []}}}",9.43,9765.0,,,methods_main,chrome,windows,en-US,0,0,irlexp10_1,2022-03-09 14:54:44.745413,2022-03-09 14:55:04.281281,2022-03-09 15:05:56.945212,0.0,3,live,hedgehog,0,0,7,1,Wed Mar 09 2022 09:54:48 GMT-0500 (Eastern Standard Time),0.002,2_4_24,312,2.66,2.66,11.2,2,1,0,1,2
,mouselab-mdp,398685.0,0.0-3.0-2.0-3.0,,"[8918, 55, 41]",,,2210,[],"[0, 0, 0, 0, 0, 0, 0, 0, 0, 0, 0, 0, 0]","['', 4, -8, -24, -24, -4, 8, -24, 24, -2, -8, -48, -48]",3457294074559537391,test_begin,23.0,19.0,"[None, None, None]","[-4, 8, 24]","['5', '6', '8']","['right', 'right', 'down']","[10054, 10622, 11175]","{'click': {'state': {'target': ['9', '1', '4', '3', '5', '11', '12', '8', '7'], 'time': [1975, 2561, 3554, 4308, 5460, 6985, 7616, 8437, 9093]}, 'edge': {'target': [], 'time': []}}, 'mouseover': {'state': {'target': ['9', '1', '2', '4', '2', '3', '3', '5', '11', '10', '12', '8', '6', '7'], 'time': [1588, 2322, 3122, 3390, 3907, 3943, 4191, 5075, 6826, 7277, 7428, 8078, 8712, 8862]}, 'edge': {'target': [], 'time': []}}, 'mouseout': {'state': {'target': ['11', '9', '0', '9', '1', '2', '4', '2', '3', '3', '5', '5', '11', '10', '12', '8', '6'], 'time': [653, 719, 970, 2239, 2906, 3257, 3890, 3941, 3974, 4708, 5909, 6294, 7227, 7344, 7961, 8695, 8812]}, 'edge': {'target': [], 'time': []}}}",11.67,12943.0,,,methods_main,chrome,windows,en-US,0,0,irlexp10_1,2022-03-09 14:54:44.745413,2022-03-09 14:55:04.281281,2022-03-09 15:05:56.945212,0.0,3,live,hedgehog,0,0,7,1,Wed Mar 09 2022 09:54:48 GMT-0500 (Eastern Standard Time),0.002,2_4_24,312,2.66,2.66,11.2,9,3,0,6,9
,mouselab-mdp,409953.0,0.0-3.0-2.0-4.0,,"[6849, 2, 66]",,,2210,[],"[0, 0, 0, 0, 0, 0, 0, 0, 0, 0, 0, 0, 0]","['', 4, -4, 24, -24, -2, -4, -24, -24, 2, -4, 48, 24]",1598574912455297978,test_begin,24.0,40.0,"[None, None, None]","[2, -4, 48]","['9', '10', '11']","['left', 'left', 'up']","[8337, 8836, 9417]","{'click': {'state': {'target': ['9', '1', '5', '4', '3', '11'], 'time': [2099, 2504, 2954, 3738, 4529, 7214]}, 'edge': {'target': [], 'time': []}}, 'mouseover': {'state': {'target': ['0', '9', '1', '5', '2', '4', '2', '3', '11', '10', '12'], 'time': [1723, 1789, 2274, 2771, 3242, 3576, 3926, 3975, 7011, 7379, 7462]}, 'edge': {'target': [], 'time': []}}, 'mouseout': {'state': {'target': ['7', '5', '0', '9', '1', '5', '2', '4', '2', '3', '11', '10', '12'], 'time': [1038, 1122, 1756, 2207, 2674, 3176, 3359, 3909, 3959, 4793, 7362, 7412, 7847]}, 'edge': {'target': [], 'time': []}}}",10.49,11214.0,,,methods_main,chrome,windows,en-US,0,0,irlexp10_1,2022-03-09 14:54:44.745413,2022-03-09 14:55:04.281281,2022-03-09 15:05:56.945212,0.0,3,live,hedgehog,0,0,7,1,Wed Mar 09 2022 09:54:48 GMT-0500 (Eastern Standard Time),0.002,2_4_24,312,2.66,2.66,11.2,6,3,0,3,6
,mouselab-mdp,441140.0,0.0-3.0-2.0-5.0,,"[5754, 95, 66]",,,2210,[],"[0, 0, 0, 0, 0, 0, 0, 0, 0, 0, 0, 0, 0]","['', 4, -4, -48, -24, 2, 4, 48, -48, -4, 4, 48, -48]",2614025964525729465,test_begin,25.0,48.0,"[None, None, None]","[2, 4, 48]","['5', '6', '7']","['right', 'right', 'up']","[27410, 28003, 28570]","{'click': {'state': {'target': ['9', '1', '4', '3', '5', '7'], 'time': [22235, 22824, 24192, 24827, 25652, 26381]}, 'edge': {'target': [], 'time': []}}, 'mouseover': {'state': {'target': ['9', '1', '5', '2', '4', '2', '3', '5', '6', '7', '6', '8'], 'time': [22013, 22663, 23298, 23848, 24031, 24516, 24599, 25484, 26118, 26235, 26600, 26684]}, 'edge': {'target': [], 'time': []}}, 'mouseout': {'state': {'target': ['9', '0', '0', '9', '1', '5', '2', '4', '2', '3', '5', '6', '7', '6'], 'time': [21245, 21295, 21979, 22397, 23147, 23764, 23865, 24449, 24565, 25116, 26067, 26178, 26568, 26634]}, 'edge': {'target': [], 'time': []}}}",30.66,31140.0,,,methods_main,chrome,windows,en-US,0,0,irlexp10_1,2022-03-09 14:54:44.745413,2022-03-09 14:55:04.281281,2022-03-09 15:05:56.945212,0.0,3,live,hedgehog,0,0,7,1,Wed Mar 09 2022 09:54:48 GMT-0500 (Eastern Standard Time),0.002,2_4_24,312,2.66,2.66,11.2,6,3,0,3,6
,mouselab-mdp,453421.0,0.0-3.0-2.0-6.0,,"[8094, 75, 89]",,,2210,[],"[0, 0, 0, 0, 0, 0, 0, 0, 0, 0, 0, 0, 0]","['', -2, -8, 24, 24, 2, -4, 24, -48, -2, -4, -24, -48]",7037128295931229090,test_begin,26.0,13.0,"[None, None, None]","[2, -4, 24]","['5', '6', '7']","['right', 'right', 'up']","[9532, 10106, 10687]","{'click': {'state': {'target': ['9', '1', '5', '8', '7', '4', '3', '11', '12'], 'time': [1954, 2435, 2860, 3706, 4386, 5690, 6587, 7188, 7682]}, 'edge': {'target': [], 'time': []}}, 'mouseover': {'state': {'target': ['9', '1', '5', '8', '6', '7', '4', '2', '3', '11', '10', '12'], 'time': [1769, 2203, 2688, 3555, 4088, 4197, 5457, 6126, 6391, 6992, 7409, 7475]}, 'edge': {'target': [], 'time': []}}, 'mouseout': {'state': {'target': ['8', '5', '0', '9', '1', '5', '8', '6', '7', '4', '2', '3', '11', '10', '12'], 'time': [852, 1002, 1703, 2120, 2621, 3137, 4071, 4105, 5156, 6092, 6158, 6908, 7358, 7442, 8627]}, 'edge': {'target': [], 'time': []}}}",11.19,12199.0,,,methods_main,chrome,windows,en-US,0,0,irlexp10_1,2022-03-09 14:54:44.745413,2022-03-09 14:55:04.281281,2022-03-09 15:05:56.945212,0.0,3,live,hedgehog,0,0,7,1,Wed Mar 09 2022 09:54:48 GMT-0500 (Eastern Standard Time),0.002,2_4_24,312,2.66,2.66,11.2,9,3,0,6,9
,mouselab-mdp,471432.0,0.0-3.0-2.0-7.0,,"[9040, 719, 450]",,,2210,[],"[0, 0, 0, 0, 0, 0, 0, 0, 0, 0, 0, 0, 0]","['', -2, -8, -24, 48, 4, 8, 48, -48, -4, -8, -24, -48]",-1966432234622664978,test_begin,27.0,56.0,"[None, None, None]","[4, 8, 48]","['5', '6', '7']","['right', 'right', 'up']","[12464, 13684, 14635]","{'click': {'state': {'target': ['9', '1', '5', '7'], 'time': [9602, 10144, 10601, 11427]}, 'edge': {'target': [], 'time': []}}, 'mouseover': {'state': {'target': ['9', '9', '1', '5', '7', '6', '8'], 'time': [9159, 9444, 9910, 10427, 11261, 11644, 11828]}, 'edge': {'target': [], 'time': []}}, 'mouseout': {'state': {'target': ['0', '0', '9', '9', '1', '5', '7', '6', '8'], 'time': [2785, 8542, 9209, 9826, 10327, 11177, 11611, 11711, 11995]}, 'edge': {'target': [], 'time': []}}}",15.13,17910.0,,,methods_main,chrome,windows,en-US,0,0,irlexp10_1,2022-03-09 14:54:44.745413,2022-03-09 14:55:04.281281,2022-03-09 15:05:56.945212,0.0,3,live,hedgehog,0,0,7,1,Wed Mar 09 2022 09:54:48 GMT-0500 (Eastern Standard Time),0.002,2_4_24,312,2.66,2.66,11.2,4,3,0,1,4
,mouselab-mdp,482631.0,0.0-3.0-2.0-8.0,,"[6443, 58, 112]",,,2210,[],"[0, 0, 0, 0, 0, 0, 0, 0, 0, 0, 0, 0, 0]","['', 2, 4, 24, 24, -4, -8, 24, 48, -4, -4, -24, -24]",779405771340628543,test_begin,28.0,29.0,"[None, None, None]","[-4, -8, 48]","['5', '6', '8']","['right', 'right', 'down']","[8262, 8811, 9430]","{'click': {'state': {'target': ['9', '1', '5', '4', '3', '7', '8'], 'time': [2298, 2747, 3356, 4155, 4637, 6346, 7050]}, 'edge': {'target': [], 'time': []}}, 'mouseover': {'state': {'target': ['9', '1', '5', '2', '4', '2', '3', '7', '7', '6', '8', '8'], 'time': [2175, 2609, 3143, 3893, 4028, 4395, 4495, 5763, 6137, 6613, 6697, 6814]}, 'edge': {'target': [], 'time': []}}, 'mouseout': {'state': {'target': ['0', '9', '0', '9', '1', '5', '1', '2', '4', '2', '3', '7', '7', '6', '8', '8'], 'time': [1341, 1574, 1992, 2492, 2925, 3727, 3811, 3961, 4361, 4445, 5614, 5812, 6546, 6663, 6731, 7330]}, 'edge': {'target': [], 'time': []}}}",10.82,11131.0,,,methods_main,chrome,windows,en-US,0,0,irlexp10_1,2022-03-09 14:54:44.745413,2022-03-09 14:55:04.281281,2022-03-09 15:05:56.945212,0.0,3,live,hedgehog,0,0,7,1,Wed Mar 09 2022 09:54:48 GMT-0500 (Eastern Standard Time),0.002,2_4_24,312,2.66,2.66,11.2,7,3,0,4,7
,mouselab-mdp,492290.0,0.0-3.0-2.0-9.0,,"[4151, 32, 66]",,,2210,[],"[0, 0, 0, 0, 0, 0, 0, 0, 0, 0, 0, 0, 0]","['', 2, -4, 48, -48, 2, -8, 24, -24, -4, -8, 24, -24]",-8977351099475698878,test_begin,29.0,41.0,"[None, None, None]","[2, -4, 48]","['1', '2', '3']","['up', 'up', 'right']","[5474, 5999, 6563]","{'click': {'state': {'target': ['9', '1', '5', '4', '3'], 'time': [2013, 2425, 2885, 3773, 4331]}, 'edge': {'target': [], 'time': []}}, 'mouseover': {'state': {'target': ['9', '10', '9', '1', '5', '4', '2', '3', '7'], 'time': [1490, 1625, 1974, 2291, 2658, 3509, 3926, 4146, 4744]}, 'edge': {'target': [], 'time': []}}, 'mouseout': {'state': {'target': ['5', '0', '9', '10', '9', '1', '5', '4', '2', '3'], 'time': [989, 1473, 1557, 1823, 2174, 2591, 3077, 3892, 3943, 4477]}, 'edge': {'target': [], 'time': []}}}",9.33,9592.0,,,methods_main,chrome,windows,en-US,0,0,irlexp10_1,2022-03-09 14:54:44.745413,2022-03-09 14:55:04.281281,2022-03-09 15:05:56.945212,0.0,3,live,hedgehog,0,0,7,1,Wed Mar 09 2022 09:54:48 GMT-0500 (Eastern Standard Time),0.002,2_4_24,312,2.66,2.66,11.2,5,3,0,2,5
,mouselab-mdp,503144.0,0.0-3.0-2.0-10.0,,"[4910, 443, 88]",,,2210,[],"[0, 0, 0, 0, 0, 0, 0, 0, 0, 0, 0, 0, 0]","['', 2, 4, -24, 48, -2, -8, 48, 24, 4, 8, -48, -48]",-2597539031851427286,test_end,30.0,48.0,"[None, None, None]","[2, 4, 48]","['1', '2', '4']","['up', 'up', 'left']","[6316, 7260, 7838]","{'click': {'state': {'target': ['9', '1', '5', '11', '12', '4'], 'time': [2099, 2559, 2951, 3761, 4368, 5249]}, 'edge': {'target': [], 'time': []}}, 'mouseover': {'state': {'target': ['9', '1', '5', '0', '11', '10', '12', '0', '2', '4'], 'time': [1643, 2395, 2760, 3144, 3612, 3979, 4145, 4829, 4962, 5129]}, 'edge': {'target': [], 'time': []}}, 'mouseout': {'state': {'target': ['7', '5', '0', '0', '9', '1', '5', '0', '9', '11', '10', '12', '0', '1', '2', '4'], 'time': [724, 808, 875, 1593, 2276, 2693, 3127, 3177, 3378, 3929, 4061, 4695, 4846, 4895, 5013, 5446]}, 'edge': {'target': [], 'time': []}}}",10.41,10805.0,,,methods_main,chrome,windows,en-US,0,0,irlexp10_1,2022-03-09 14:54:44.745413,2022-03-09 14:55:04.281281,2022-03-09 15:05:56.945212,0.0,3,live,hedgehog,0,0,7,1,Wed Mar 09 2022 09:54:48 GMT-0500 (Eastern Standard Time),0.002,2_4_24,312,2.66,2.66,11.2,6,3,0,3,6
,mouselab-mdp,513033.0,0.0-3.0-2.0-11.0,,"[3477, 407, 44]",,,2210,[],"[0, 0, 0, 0, 0, 0, 0, 0, 0, 0, 0, 0, 0]","['', 4, -4, -48, 48, -4, 8, 48, -24, 2, 4, 24, 48]",-8591125776345143645,test_end,31.0,44.0,"[None, None, None]","[4, -4, 48]","['1', '2', '4']","['up', 'up', 'left']","[4994, 5907, 6444]","{'click': {'state': {'target': ['9', '1', '5', '4'], 'time': [1939, 2454, 3302, 4072]}, 'edge': {'target': [], 'time': []}}, 'mouseover': {'state': {'target': ['9', '1', '5', '5', '4', '4', '2', '3'], 'time': [1757, 2258, 2743, 3193, 3743, 3962, 4261, 4394]}, 'edge': {'target': [], 'time': []}}, 'mouseout': {'state': {'target': ['0', '9', '1', '5', '5', '1', '4', '4', '2'], 'time': [1742, 2092, 2659, 2929, 3576, 3643, 3776, 4245, 4295]}, 'edge': {'target': [], 'time': []}}}",9.52,9813.0,,,methods_main,chrome,windows,en-US,0,0,irlexp10_1,2022-03-09 14:54:44.745413,2022-03-09 14:55:04.281281,2022-03-09 15:05:56.945212,0.0,3,live,hedgehog,0,0,7,1,Wed Mar 09 2022 09:54:48 GMT-0500 (Eastern Standard Time),0.002,2_4_24,312,2.66,2.66,11.2,4,3,0,1,4
